"Time (s)","Acceleration x (m/s^2)","Acceleration y (m/s^2)","Acceleration z (m/s^2)","Absolute acceleration (m/s^2)"
8.107498288E-4,6.660699005E0,6.336173859E0,2.797532501E0,9.609276690E0
1.078874990E-2,6.759643250E0,7.012168121E0,2.724484406E0,1.011365878E1
2.076574974E-2,6.563700714E0,7.039710846E0,2.830464020E0,1.003250828E1
3.074374981E-2,6.447991333E0,6.687044220E0,2.812651062E0,9.705882681E0
4.072075011E-2,6.358477478E0,6.552623749E0,2.826871490E0,9.558154438E0
5.069874972E-2,6.477180634E0,6.580016785E0,2.850522308E0,9.663124095E0
6.067575002E-2,6.604715424E0,6.612499237E0,2.852767639E0,9.771678218E0
7.065375010E-2,6.621929626E0,6.718329163E0,2.841391296E0,9.851873082E0
8.063074993E-2,6.628366241E0,6.732848969E0,2.720442810E0,9.831953181E0
9.060875000E-2,6.613097992E0,6.722520447E0,2.700234833E0,9.809006798E0
1.005867501E-1,6.594686279E0,6.815327454E0,2.782863007E0,9.883466089E0
1.105637499E-1,6.558461609E0,6.812633057E0,2.779569855E0,9.856540794E0
1.205417500E-1,6.510561218E0,6.758894806E0,2.787802734E0,9.789888174E0
1.305187498E-1,6.441405029E0,6.746021576E0,2.835553436E0,9.748890662E0
1.404967499E-1,6.419550476E0,6.700216827E0,2.863694916E0,9.711039204E0
1.504737497E-1,6.452481995E0,6.690187683E0,2.865491180E0,9.726467747E0
1.604517498E-1,6.477030945E0,6.697821808E0,2.857857056E0,9.745773124E0
1.704287501E-1,6.500681763E0,6.710395660E0,2.821482697E0,9.759561358E0
1.804067497E-1,6.538852386E0,6.691834259E0,2.796784058E0,9.765205443E0
1.903837500E-1,6.564748535E0,6.685547333E0,2.825524292E0,9.786524102E0
2.003617501E-1,6.580765228E0,6.690037994E0,2.816542969E0,9.797754521E0
2.103387499E-1,6.558760986E0,6.665489044E0,2.785108337E0,9.757198283E0
2.203167500E-1,6.536307678E0,6.692133636E0,2.793939972E0,9.762892565E0
2.302947501E-1,6.534661102E0,6.722969513E0,2.812950439E0,9.788401553E0
2.402717499E-1,6.546935577E0,6.731501770E0,2.817890167E0,9.803876097E0
2.502497500E-1,6.554120636E0,6.752907257E0,2.819087677E0,9.823721752E0
2.602267498E-1,6.533613281E0,6.804549866E0,2.854114838E0,9.855758362E0
2.702047499E-1,6.496490479E0,6.822662201E0,2.868484955E0,9.847909117E0
2.801817497E-1,6.461014252E0,6.776558075E0,2.868035889E0,9.792449865E0
2.901597498E-1,6.415658569E0,6.714736633E0,2.856659546E0,9.716422526E0
3.001367501E-1,6.403683472E0,6.654711456E0,2.840343475E0,9.662292566E0
3.101147497E-1,6.434219971E0,6.654112701E0,2.799927521E0,9.670366932E0
3.200917500E-1,6.497089233E0,6.646029510E0,2.755320282E0,9.694001579E0
3.300697501E-1,6.591692505E0,6.593937836E0,2.726430359E0,9.714105659E0
3.400467499E-1,6.664441223E0,6.526278534E0,2.749482422E0,9.724543275E0
3.500247500E-1,6.638994141E0,6.540049896E0,2.785707092E0,9.726698302E0
3.600027501E-1,6.533313904E0,6.552324371E0,2.739004211E0,9.649833641E0
3.699797499E-1,6.202501831E0,6.302942963E0,2.647843781E0,9.230882712E0
3.799577500E-1,5.870043182E0,5.761967926E0,2.627785492E0,8.634983378E0
3.899347498E-1,5.048551483E0,4.771777039E0,2.822829895E0,7.498406284E0
3.999127499E-1,5.003195801E0,5.018164673E0,2.502046967E0,7.514930733E0
4.098897497E-1,5.405858459E0,5.947282562E0,2.343376923E0,8.371671933E0
4.198677498E-1,6.083349609E0,6.260281677E0,2.757415924E0,9.154322024E0
4.298445000E-1,6.542145538E0,5.759722595E0,3.012635193E0,9.222258044E0
4.398225001E-1,6.802005157E0,5.897885284E0,2.678679657E0,9.392957452E0
4.497994999E-1,6.570137329E0,6.112239532E0,2.673590240E0,9.363453497E0
4.597775000E-1,6.444249115E0,6.311624908E0,2.344574432E0,9.319977731E0
4.697544998E-1,6.375541992E0,6.077511749E0,2.486928406E0,9.152513188E0
4.797324999E-1,6.126160583E0,5.060676270E0,2.641556854E0,8.373655738E0
4.897105000E-1,5.606441345E0,3.713178406E0,2.864443359E0,7.309234857E0
4.996874998E-1,4.844675446E0,2.715652771E0,3.119962006E0,6.370228651E0
5.096654999E-1,4.130510559E0,3.110531616E0,2.808759155E0,5.884356584E0
5.196424997E-1,3.741619263E0,4.253105621E0,2.434387665E0,6.165619631E0
5.296204998E-1,3.518433380E0,5.268294525E0,1.860930176E0,6.602829831E0
5.395975001E-1,3.083288269E0,6.213728485E0,9.674382019E-1,7.003786470E0
5.495754997E-1,1.925446014E0,7.131619720E0,7.033872986E-1,7.420383810E0
5.595525000E-1,7.095245361E-1,8.353229370E0,4.207749939E-1,8.393861899E0
5.695305001E-1,-3.965254211E-1,9.526040497E0,1.493893433E-1,9.535459985E0
5.795074999E-1,-6.649172974E-1,1.011895752E1,4.270619202E-1,1.014976838E1
5.894855000E-1,-4.403842163E-1,1.044198578E1,8.523275757E-1,1.048596527E1
5.994635001E-1,-4.085005188E-1,1.082249451E1,9.322613525E-1,1.087025166E1
6.094404999E-1,-5.360353088E-1,1.142828476E1,1.523531799E0,1.154184455E1
6.194185000E-1,-8.213420105E-1,1.271441025E1,3.146157532E0,1.312360994E1
6.293954998E-1,-1.176553345E0,1.353245911E1,3.997137909E0,1.415940813E1
6.393734999E-1,-1.571282501E0,1.409334274E1,3.298690338E0,1.455927870E1
6.493504997E-1,-1.934127960E0,1.426608353E1,2.421364746E0,1.459880123E1
6.593284998E-1,-2.387984161E0,1.344743591E1,1.961221619E0,1.379791257E1
6.693055001E-1,-2.481090546E0,1.476903763E1,1.969005432E0,1.510487554E1
6.792834997E-1,-2.058818665E0,1.522618698E1,1.669178925E0,1.545515003E1
6.892605000E-1,-1.372795258E0,1.574919937E1,1.464554443E0,1.587661070E1
6.992385001E-1,-8.223898315E-1,1.413360901E1,1.407073975E0,1.422726558E1
7.092154999E-1,-4.860392761E-1,1.018841309E1,1.431173859E0,1.029991524E1
7.191935000E-1,-9.331594849E-1,9.571545868E0,1.811083832E0,9.785974738E0
7.291715001E-1,-1.586850128E0,1.016221756E1,2.349214783E0,1.055024024E1
7.391484999E-1,-1.931882629E0,1.033959869E1,3.035537567E0,1.094778334E1
7.491265000E-1,-2.118993530E0,1.019425095E1,3.513793030E0,1.098906854E1
7.591034998E-1,-2.213147736E0,9.735455017E0,3.782783661E0,1.067644883E1
7.690814999E-1,-2.243085480E0,9.341174927E0,3.947291565E0,1.038605277E1
7.790584997E-1,-2.140399017E0,9.251212006E0,4.203858032E0,1.038453918E1
7.890364998E-1,-1.938618622E0,9.212592316E0,4.354295197E0,1.037255928E1
7.990135001E-1,-1.727856903E0,9.164691925E0,4.444856873E0,1.033120613E1
8.089914997E-1,-1.525178375E0,8.972192230E0,4.655468903E0,1.022251403E1
8.189685000E-1,-1.336720276E0,8.706494751E0,5.103038177E0,1.017992488E1
8.289465001E-1,-9.834548950E-1,8.329428864E0,5.522016907E0,1.004187430E1
8.389244997E-1,-4.784051514E-1,8.042625275E0,5.928721161E0,1.000312088E1
8.489015000E-1,-2.829116821E-2,7.887248383E0,6.345454559E0,1.012295812E1
8.588795001E-1,2.324665833E-1,7.751031647E0,6.046376495E0,9.833168412E0
8.688564999E-1,3.359014893E-1,7.784561920E0,5.076543274E0,9.299651913E0
8.788345000E-1,2.800675964E-1,8.155789948E0,4.099674683E0,9.132506777E0
8.888114998E-1,-1.194515991E-1,8.708740082E0,2.911445618E0,9.183296689E0
8.987894999E-1,-7.294331360E-1,9.388177185E0,1.320404205E0,9.508596680E0
9.087664997E-1,-9.225315857E-1,1.008887009E1,7.023394775E-1,1.015527670E1
9.187444998E-1,-7.777825928E-1,1.038420593E1,9.624984741E-1,1.045768052E1
9.287215001E-1,-1.194515991E-1,1.061173279E1,1.525328064E0,1.072146292E1
9.386994997E-1,8.689430237E-1,1.064077240E1,2.536475372E0,1.097336806E1
9.486765000E-1,1.934277649E0,1.061652283E1,3.290457458E0,1.128180381E1
9.586545001E-1,2.654729462E0,1.040965302E1,3.963158569E0,1.145054978E1
9.686314999E-1,2.827919312E0,9.993218994E0,4.176015930E0,1.119377785E1
9.786095000E-1,2.404599609E0,9.298363953E0,3.602708130E0,1.025773744E1
9.885875001E-1,2.124532013E0,8.548124084E0,2.853516083E0,9.258866868E0
9.985644999E-1,1.815275116E0,7.858508148E0,2.576142883E0,8.466869919E0
1.008542500E0,1.399739227E0,7.561675415E0,2.887345734E0,8.214314967E0
1.018519500E0,1.041234741E0,7.255262604E0,3.569926300E0,8.152752849E0
1.028497500E0,1.115330658E0,7.205266571E0,4.087849274E0,8.358848038E0
1.038474500E0,1.404379578E0,7.022197266E0,4.217330017E0,8.310800738E0
1.048452500E0,1.213077393E0,7.202572174E0,3.860921173E0,8.261677492E0
1.058429500E0,6.535409546E-1,7.504793701E0,3.560795288E0,8.332365052E0
1.068407500E0,-2.395019531E-3,7.635471954E0,3.518583069E0,8.407191238E0
1.078384500E0,-5.176235962E-1,7.670199738E0,3.703598328E0,8.533260735E0
1.088362500E0,-8.322692871E-1,7.745792542E0,3.989952850E0,8.752696614E0
1.098340500E0,-9.524693298E-1,7.865094452E0,4.229903870E0,8.981035314E0
1.108317500E0,-9.261241150E-1,7.998467102E0,4.570595398E0,9.258699917E0
1.118295500E0,-8.393046570E-1,8.098159790E0,4.938979340E0,9.522507086E0
1.128272500E0,-7.183561707E-1,8.220904541E0,5.087320862E0,9.694335491E0
1.138250500E0,-5.321434021E-1,8.317304077E0,5.147944794E0,9.796022627E0
1.148227500E0,-1.954934692E-1,8.309220886E0,5.218747559E0,9.814106965E0
1.158205500E0,2.032772827E-1,8.217312012E0,5.301076355E0,9.780948260E0
1.168182500E0,5.399272156E-1,8.040679321E0,5.261857910E0,9.624510066E0
1.178160500E0,5.923182678E-1,7.758516083E0,5.064867554E0,9.284303747E0
1.188137500E0,4.291575623E-1,7.478897552E0,4.833748169E0,8.915335449E0
1.198115500E0,1.907034302E-1,7.352410583E0,4.819378052E0,8.793219774E0
1.208092500E0,-4.041595459E-2,7.375612335E0,5.070256348E0,8.950351401E0
1.218070500E0,-2.131567383E-1,7.467072144E0,5.480253754E0,9.264760299E0
1.228048500E0,-2.966830444E-1,7.517966309E0,5.781726837E0,9.488740879E0
1.238025500E0,-3.490740967E-1,7.507787476E0,5.979914703E0,9.604587725E0
1.248003500E0,-4.487667847E-1,7.474257202E0,6.006409607E0,9.599107704E0
1.257980500E0,-6.472540283E-1,7.454498291E0,5.799988861E0,9.467225218E0
1.267958500E0,-9.752220154E-1,7.433691559E0,5.466632080E0,9.278733452E0
1.277935500E0,-1.482517090E0,7.399861908E0,5.146896973E0,9.134898008E0
1.287913500E0,-2.094893646E0,7.500752106E0,5.108277283E0,9.313665140E0
1.297890500E0,-2.675386505E0,8.559350739E0,6.069278870E0,1.082849593E1
1.307868500E0,-2.462678833E0,1.073238190E1,6.985074463E0,1.303994147E1
1.317845500E0,-1.869911499E0,1.313219147E1,6.627767487E0,1.482829470E1
1.327823500E0,-1.531165924E0,1.554457489E1,5.969137115E0,1.672150937E1
1.337801500E0,-1.515149231E0,1.728964600E1,6.488257599E0,1.852903188E1
1.347778500E0,-6.765930176E-1,1.804377777E1,6.934030609E0,1.934209076E1
1.357756500E0,-8.906478882E-2,1.544428345E1,5.623655548E0,1.643652413E1
1.367733500E0,-3.240760803E-1,1.076980408E1,3.311862946E0,1.127218441E1
1.377711500E0,-8.613088989E-1,7.398365021E0,6.481521606E-2,7.448614570E0
1.387688500E0,-1.183588715E0,5.816155243E0,-2.692750397E0,6.517626006E0
1.397666500E0,-1.485361176E0,6.171366577E0,-2.725981293E0,6.908186250E0
1.407643500E0,-1.672172699E0,7.485334167E0,-9.232800293E-1,7.725207774E0
1.417621500E0,-3.329077148E-1,8.456065521E0,5.852828979E-2,8.462818514E0
1.427602833E0,1.507215729E0,8.943751373E0,-3.848497009E-1,9.078022757E0
1.437580833E0,1.345701599E0,7.645351410E0,-1.486858063E0,7.903989997E0
1.447557833E0,1.361269226E0,6.635850677E0,-2.475252686E0,7.212103991E0
1.457535833E0,1.377136230E0,6.140830078E0,-3.180735626E0,7.051480509E0
1.467513833E0,1.250649261E0,6.029611359E0,-3.304378510E0,6.988508714E0
1.477490833E0,1.226848755E0,6.148913269E0,-3.205883331E0,7.042157354E0
1.487468833E0,1.501078491E0,6.492748260E0,-2.727927246E0,7.200736328E0
1.497445833E0,2.050286407E0,7.543413391E0,-1.138981476E0,7.899622696E0
1.507423833E0,2.856060791E0,9.370663605E0,1.024319916E0,9.849652325E0
1.517400833E0,3.541635132E0,1.133697464E1,2.267185364E0,1.209174524E1
1.527378833E0,3.953877869E0,1.317006271E1,1.512604523E0,1.383371514E1
1.537355833E0,4.061054993E0,1.430694855E1,2.061213684E-1,1.487358163E1
1.547333833E0,3.248694305E0,1.379022308E1,-7.496411133E-1,1.418753781E1
1.557310833E0,2.831960907E0,1.290107208E1,-7.936495972E-1,1.323206496E1
1.567288833E0,3.269201660E0,1.198856964E1,1.074765015E-1,1.242678690E1
1.577266833E0,4.351301422E0,1.041773621E1,1.046623535E0,1.133836287E1
1.587243833E0,5.613177338E0,9.248517609E0,1.116378479E0,1.087608104E1
1.597221833E0,5.653293915E0,8.673862610E0,4.089495850E-1,1.036160530E1
1.607198833E0,4.691394196E0,7.798932037E0,-1.655557251E-1,9.102742945E0
1.617176833E0,4.697232056E0,7.616910553E0,-3.698808289E-1,8.956457290E0
1.627153833E0,4.600832520E0,7.644153900E0,-3.245251465E-1,8.927825339E0
1.637131833E0,4.547243958E0,7.773185577E0,-3.017724609E-1,9.010599772E0
1.647108833E0,4.453838196E0,8.015232239E0,-3.546125793E-1,9.176403032E0
1.657086833E0,4.275109863E0,8.207731934E0,-3.156935120E-1,9.259756489E0
1.667063833E0,3.667523346E0,8.210426331E0,-1.977388000E-1,8.994494352E0
1.677041833E0,3.395688629E0,9.101672974E0,1.948947144E-1,9.716436391E0
1.687018833E0,2.981050873E0,9.421857147E0,4.408332825E-1,9.892036716E0
1.696996833E0,2.519560547E0,9.470356293E0,5.941145325E-1,9.817780082E0
1.706974833E0,2.221829681E0,9.502389679E0,6.053411865E-1,9.777442135E0
1.716951833E0,1.981728973E0,9.553134155E0,3.820056152E-1,9.763992534E0
1.726929833E0,1.731898499E0,9.505982208E0,1.484912109E-1,9.663602837E0
1.736906833E0,1.535955963E0,9.400002594E0,-1.667532349E-1,9.526122828E0
1.746884833E0,1.458716583E0,9.334888000E0,-6.756948853E-1,9.472304452E0
1.756861833E0,1.530567169E0,9.228758698E0,-1.024469604E0,9.410747097E0
1.766839833E0,1.339564362E0,8.651409302E0,-1.371897125E0,8.861343990E0
1.776816833E0,1.786983948E0,9.347461853E0,-1.638642426E0,9.656785372E0
1.786794833E0,1.976040802E0,9.612859955E0,-1.484463043E0,9.925494662E0
1.796771833E0,2.080523529E0,9.690398712E0,-6.812333679E-1,9.934610423E0
1.806749833E0,2.576741638E0,9.894723816E0,-3.023712158E-2,1.022477732E1
1.816727833E0,2.796784058E0,9.652976532E0,-7.110214233E-2,1.005022450E1
1.826704833E0,3.734434204E0,1.060140427E1,-8.996292114E-2,1.124027867E1
1.836682833E0,3.987408142E0,1.038106247E1,-4.071533203E-2,1.112059079E1
1.846659833E0,3.498075714E0,9.381590881E0,-4.520599365E-2,1.001263326E1
1.856637833E0,4.855003967E0,1.075797867E1,-1.592687988E-1,1.180383561E1
1.866614833E0,5.313500519E0,1.091829529E1,-3.215313721E-1,1.214684495E1
1.876592833E0,4.165537720E0,9.281449127E0,-7.147636414E-1,1.019842583E1
1.886569833E0,4.554129639E0,9.432485046E0,-9.367520142E-1,1.051614831E1
1.896547833E0,5.504353638E0,1.009276199E1,-1.005908203E-1,1.149660263E1
1.906524833E0,6.589297485E0,1.088895630E1,1.266516266E0,1.279031955E1
1.916502833E0,6.737339630E0,1.051563263E1,2.349514160E0,1.270789092E1
1.926479833E0,6.347550201E0,9.753417664E0,1.799707489E0,1.177537671E1
1.936457833E0,6.209237823E0,1.008393036E1,-1.203497314E-1,1.184292067E1
1.946435833E0,6.527775421E0,1.123204285E1,-1.504371643E0,1.307798809E1
1.956412833E0,6.794520721E0,1.218241653E1,-1.748663635E0,1.405825768E1
1.966390833E0,6.893015900E0,1.234108658E1,-1.130149841E0,1.418073781E1
1.976367833E0,7.951764221E0,1.333322342E1,1.766326904E-1,1.552535346E1
1.986345833E0,7.976462860E0,1.321646622E1,1.855691071E0,1.554807153E1
1.996322833E0,7.138655090E0,1.248119522E1,2.100881195E0,1.453115042E1
2.006300833E0,5.326972504E0,1.144415176E1,1.447040863E0,1.270587159E1
2.016277833E0,3.498973846E0,1.038121216E1,1.114282837E0,1.101153986E1
2.026255833E0,2.217488708E0,9.842332764E0,5.739065552E-1,1.010535200E1
2.036232833E0,1.391057281E0,1.020442978E1,2.104623413E-1,1.030095733E1
2.046210833E0,1.109343109E0,1.088656128E1,-1.360670471E-1,1.094378238E1
2.056188833E0,1.325942688E0,1.168515060E1,-8.939410400E-1,1.179406627E1
2.066165833E0,1.733994141E0,1.232731522E1,-2.052531738E0,1.261674771E1
2.076143833E0,2.119741974E0,1.261995667E1,-2.786006470E0,1.309650504E1
2.086120833E0,2.433190155E0,1.270468048E1,-2.482138367E0,1.317157285E1
2.096098833E0,2.774181061E0,1.297337173E1,-1.779948578E0,1.338553965E1
2.106075833E0,3.067720642E0,1.278341675E1,-1.332528992E0,1.321371587E1
2.116053833E0,3.509002991E0,1.245514938E1,-1.246457977E0,1.299990406E1
2.126030833E0,3.884571991E0,1.208631638E1,-2.055675201E0,1.286058877E1
2.136008833E0,4.454736328E0,1.151839737E1,-2.352208557E0,1.257183514E1
2.145985833E0,5.001549225E0,1.068837341E1,-1.400936737E0,1.188357878E1
2.155963833E0,5.147046661E0,9.519753571E0,-3.276686096E-1,1.082705704E1
2.165941833E0,4.914879456E0,8.518036652E0,-2.487826538E-1,9.837422491E0
2.175918833E0,4.457879791E0,8.032296753E0,-5.908213806E-1,9.205408913E0
2.185896833E0,3.902384949E0,8.001311188E0,-9.214837646E-1,8.949788899E0
2.195873833E0,3.241060181E0,7.980953522E0,-9.312135315E-1,8.664135782E0
2.205851833E0,2.698288879E0,7.861352234E0,-1.087338867E0,8.382358119E0
2.215828833E0,1.892963562E0,7.953111420E0,-1.241817627E0,8.269063025E0
2.225806833E0,1.403930511E0,7.753276978E0,-1.480122070E0,8.017174447E0
2.235783833E0,9.735754395E-1,7.481292572E0,-1.680555267E0,7.729285458E0
2.245761833E0,6.746470642E-1,7.076534271E0,-1.842668152E0,7.343562614E0
2.255738833E0,1.657054138E-1,6.601721649E0,-1.805395660E0,6.846140556E0
2.265716833E0,-4.981640625E-1,6.332132263E0,-1.601070557E0,6.550381161E0
2.275693833E0,-1.195114746E0,6.337371368E0,-1.040037231E0,6.532400214E0
2.285671833E0,-1.723964996E0,6.387217712E0,-2.836601257E-1,6.621862916E0
2.295649833E0,-2.076032867E0,6.371500397E0,5.942642212E-2,6.701452176E0
2.305626833E0,-2.105970612E0,6.412814484E0,5.029541016E-1,6.768475799E0
2.315604833E0,-1.751807098E0,6.394552460E0,1.274300079E0,6.751516123E0
2.325581833E0,-9.886940002E-1,6.409970398E0,2.066303101E0,6.806970312E0
2.335559833E0,-1.231938171E-1,6.467450867E0,2.554138641E0,6.954618726E0
2.345536833E0,5.625302124E-1,6.558012543E0,2.910697174E0,7.196952604E0
2.355514833E0,1.072968750E0,6.784940643E0,3.311413879E0,7.625755264E0
2.365491833E0,1.580563202E0,7.104376373E0,3.757935333E0,8.190996378E0
2.375469833E0,2.361489258E0,7.519463196E0,4.080664215E0,8.875290345E0
2.385446833E0,3.439547424E0,7.993227997E0,4.454586639E0,9.775761987E0
2.395424833E0,4.575834503E0,8.615933075E0,4.847519531E0,1.089362244E1
2.405402833E0,5.725294189E0,9.591903534E0,4.915777588E0,1.220444494E1
2.415379833E0,6.543043671E0,1.060349991E1,5.285059662E0,1.353430776E1
2.425353458E0,7.120393066E0,1.122650436E1,6.359076233E0,1.473676519E1
2.435330458E0,7.307503967E0,1.146585663E1,7.412735138E0,1.548593312E1
2.445308458E0,6.668482819E0,1.130045059E1,7.843688965E0,1.528699785E1
2.455285458E0,5.561834106E0,1.058927948E1,7.461383972E0,1.409748521E1
2.465263458E0,4.464017029E0,9.645492096E0,6.671775970E0,1.254892666E1
2.475240458E0,3.662733307E0,8.850794678E0,6.105353851E0,1.135902845E1
2.485218458E0,3.096610565E0,8.247698822E0,5.848937073E0,1.057466774E1
2.495195458E0,2.882406006E0,7.567213898E0,5.829028473E0,9.977402643E0
2.505173458E0,3.334915009E0,7.398065643E0,5.439388733E0,9.769338932E0
2.515150458E0,4.257596283E0,9.081614685E0,3.447331238E0,1.060598624E1
2.525128458E0,4.725223846E0,1.081261505E1,2.156864777E0,1.199551793E1
2.535106458E0,4.334985352E0,1.214140182E1,1.589394836E0,1.298968484E1
2.545083458E0,3.895349579E0,1.328008392E1,1.592687988E-1,1.384051097E1
2.555061458E0,4.166585541E0,1.403840698E1,-1.753303986E0,1.474826704E1
2.565038458E0,3.977079620E0,1.415052383E1,-3.385958862E0,1.508373974E1
2.575016458E0,1.841320953E0,1.259121643E1,-3.316503296E0,1.315022388E1
2.584993458E0,-8.086184692E-1,9.695188751E0,-1.113833771E0,9.792403914E0
2.594971458E0,-2.458786926E0,7.301965485E0,1.010398865E0,7.770793972E0
2.604948458E0,-1.935175781E0,6.813082123E0,2.874023438E-1,7.088412617E0
2.614926458E0,-4.924758911E-1,7.592211914E0,-1.941013641E0,7.851862722E0
2.624903458E0,3.146456909E-1,8.455766144E0,-3.364403687E0,9.105942848E0
2.634881458E0,6.201603699E-1,9.090745697E0,-3.766168213E0,9.859527332E0
2.644859458E0,7.333250427E-1,9.613009644E0,-4.196223907E0,1.051456205E1
2.654836458E0,8.008346558E-1,9.443112946E0,-4.226161652E0,1.037661605E1
2.664814458E0,1.847757568E0,1.043375290E1,-3.177442474E0,1.106225783E1
2.674791458E0,2.653981018E0,1.064601151E1,-1.975741425E0,1.114830617E1
2.684769458E0,2.799328766E0,9.969119110E0,-3.733236694E-1,1.036141631E1
2.694746458E0,3.153941345E0,9.360035706E0,1.686692505E0,1.002010709E1
2.704724458E0,3.529959412E0,8.984766083E0,2.979254608E0,1.010260328E1
2.714701458E0,3.365301819E0,8.884923706E0,2.603984985E0,9.851287398E0
2.724679458E0,2.821782074E0,8.870254211E0,1.525477753E0,9.432441159E0
2.734656458E0,2.486928406E0,8.967252502E0,6.071374512E-1,9.325505146E0
2.744634458E0,2.373015289E0,9.202263794E0,-1.556762695E-1,9.504582873E0
2.754612458E0,2.252366180E0,9.329798584E0,-1.429527283E-1,9.598892150E0
2.764589458E0,2.147883453E0,9.229058075E0,2.100132751E-1,9.478028374E0
2.774567458E0,2.051932983E0,9.006620636E0,2.248324585E-1,9.240140361E0
2.784544458E0,2.073488159E0,8.649912415E0,4.116439819E-2,8.895056629E0
2.794522458E0,2.237996063E0,8.459208984E0,-2.053729248E-1,8.752657943E0
2.804499458E0,2.590063934E0,8.555608521E0,-4.306544495E-1,8.949431915E0
2.814477458E0,3.132086792E0,8.816815338E0,-6.165678406E-1,9.376905475E0
2.824454458E0,3.629203033E0,9.022038574E0,-7.250921631E-1,9.751617986E0
2.834432458E0,3.795806580E0,8.831933899E0,-6.571334839E-1,9.635508726E0
2.844409458E0,3.948189697E0,8.644373932E0,-6.107299805E-1,9.522940390E0
2.854387458E0,4.543052673E0,9.141340485E0,-4.824467468E-1,1.021940254E1
2.864365458E0,4.470154266E0,8.777147827E0,-2.841091919E-1,9.854000263E0
2.874342458E0,4.403243408E0,8.792865143E0,-2.695893860E-1,9.837464529E0
2.884320458E0,4.130211182E0,8.749156036E0,-6.291416931E-1,9.695472914E0
2.894297458E0,3.823349304E0,8.704548798E0,-8.087681580E-1,9.541555198E0
2.904275458E0,3.436254272E0,8.843010864E0,-7.819738770E-1,9.519357526E0
2.914252458E0,3.077151031E0,8.889564056E0,-6.953041077E-1,9.432743789E0
2.924230458E0,2.657274170E0,8.707093506E0,-7.539820862E-1,9.134717966E0
2.934207458E0,2.607727203E0,9.110055542E0,-6.818321228E-1,9.500434105E0
2.944185458E0,2.500250702E0,9.221274261E0,-6.968009949E-1,9.579597288E0
2.954162458E0,2.260149994E0,9.125174103E0,-6.273454285E-1,9.421817377E0
2.964140458E0,2.245181122E0,9.189540253E0,-5.236111450E-1,9.474315646E0
2.974118458E0,2.442470856E0,9.323661346E0,-4.754113770E-1,9.649991749E0
2.984095458E0,2.779569855E0,9.586963806E0,-6.089337158E-1,1.000033419E1
2.994073458E0,3.198847961E0,9.834998016E0,-5.918692017E-1,1.035905997E1
3.004050458E0,3.713028717E0,1.015802628E1,-7.149133301E-1,1.083896587E1
3.014028458E0,4.034260712E0,1.032148636E1,-7.490423584E-1,1.110717807E1
3.024005458E0,4.292623444E0,1.049168243E1,-7.128176880E-1,1.135826243E1
3.033983458E0,4.398453369E0,1.047371979E1,-6.792874146E-1,1.138009796E1
3.043960458E0,4.724026337E0,1.062595322E1,-2.448907471E-1,1.163130595E1
3.053938458E0,5.255870361E0,1.075588303E1,3.505709839E-1,1.197648082E1
3.063915458E0,5.362299042E0,1.034214340E1,6.936575317E-1,1.167027600E1
3.073893458E0,5.360802155E0,9.902657318E0,9.279203796E-1,1.129875471E1
3.083870458E0,5.418282623E0,9.609866180E0,8.708889771E-1,1.106642500E1
3.093848458E0,5.817352753E0,1.016820511E1,4.736151123E-1,1.172426115E1
3.103826458E0,6.536906433E0,1.138906631E1,-2.589614868E-2,1.313174200E1
3.113803458E0,7.208110657E0,1.243688736E1,-2.396516418E-1,1.437673326E1
3.123781458E0,7.798782349E0,1.303654037E1,6.459068298E-1,1.520491982E1
3.133758458E0,7.574848022E0,1.237491623E1,1.962568817E0,1.464133022E1
3.143736458E0,7.118447113E0,1.160267212E1,2.678529968E0,1.387331296E1
3.153713458E0,6.271208954E0,1.123174347E1,2.215393066E0,1.305327888E1
3.163691458E0,4.986879730E0,1.115225876E1,1.297352142E0,1.228515232E1
3.173668458E0,3.572620697E0,1.107965973E1,9.921368408E-1,1.168361305E1
3.183646458E0,2.238295441E0,1.102936432E1,4.986131287E-1,1.126523230E1
3.193624458E0,1.102307739E0,1.096035782E1,-1.107696533E-2,1.101565470E1
3.203601458E0,4.905299377E-1,1.125120300E1,-3.150947571E-1,1.126629812E1
3.213579458E0,4.625381470E-1,1.237880814E1,-2.977308655E-1,1.239102401E1
3.223556458E0,8.500822449E-1,1.391431503E1,-4.305047607E-1,1.394690421E1
3.233534458E0,9.770182800E-1,1.516526367E1,-6.586303711E-2,1.519684589E1
3.243511458E0,7.569758606E-1,1.615246078E1,3.899391174E-1,1.617488962E1
3.253489458E0,3.540138245E-1,1.642669052E1,4.273612976E-1,1.643606172E1
3.263466458E0,1.227447510E-1,1.474089615E1,2.957849121E-1,1.474437433E1
3.273444458E0,2.510279846E-1,1.246787292E1,-3.058140564E-1,1.247414897E1
3.283421458E0,5.099894714E-1,1.045665527E1,-1.515598297E0,1.057822135E1
3.293399458E0,6.460565186E-1,8.832233276E0,-1.281036072E0,8.948004643E0
3.303376458E0,6.057902527E-1,7.650889893E0,-3.760180664E-1,7.684041096E0
3.313354458E0,5.650749207E-1,6.754104767E0,3.353027344E-2,6.777784678E0
3.323332458E0,4.189787292E-1,6.319558411E0,1.881587219E-1,6.336226431E0
3.333309458E0,2.941383362E-1,6.195017395E0,3.041674805E-1,6.209450518E0
3.343287458E0,1.922003174E-1,6.299051056E0,3.887416077E-1,6.313961134E0
3.353264458E0,1.576222229E-1,6.493197327E0,4.504133606E-1,6.510708754E0
3.363242458E0,1.082249451E-1,6.689888306E0,4.011657715E-1,6.702779435E0
3.373219458E0,7.708969116E-2,6.948550415E0,2.341131592E-1,6.952920585E0
3.383197458E0,-8.532257080E-3,7.183262329E0,1.942959595E-1,7.185894614E0
3.393174458E0,-1.597178650E-1,7.208709412E0,3.869453430E-1,7.220853681E0
3.403152458E0,-2.212399292E-1,7.072043610E0,6.071374512E-1,7.101504334E0
3.413129458E0,-2.242337036E-1,6.818620605E0,7.731422424E-1,6.865975287E0
3.423107458E0,-2.456391907E-1,6.478827209E0,9.321116638E-1,6.550142958E0
3.433085958E0,-2.993774414E-1,6.190676422E0,1.098266144E0,6.294465024E0
3.443062958E0,-2.853067017E-1,6.024072876E0,1.279389496E0,6.165037827E0
3.453040958E0,-1.243913269E-1,5.898034973E0,1.454525299E0,6.076012968E0
3.463017958E0,2.447410583E-1,5.891598358E0,1.765129395E0,6.155201961E0
3.472995958E0,9.446855164E-1,6.188431091E0,2.211800537E0,6.639365309E0
3.482972958E0,1.871558075E0,6.665938110E0,2.701731720E0,7.432147389E0
3.492950958E0,2.869682465E0,7.173083496E0,3.334615631E0,8.414740976E0
3.502927958E0,3.962410126E0,7.863148499E0,4.216282196E0,9.762521901E0
3.512905958E0,5.321134644E0,8.746461639E0,4.952601013E0,1.137292055E1
3.522883958E0,6.614295502E0,9.552385712E0,5.284161530E0,1.276398609E1
3.532860958E0,7.655829620E0,9.895921326E0,6.113586731E0,1.392540587E1
3.542838958E0,8.245154114E0,9.715097351E0,6.663842468E0,1.437958551E1
3.552815958E0,8.152796173E0,9.074429626E0,6.362369385E0,1.375838300E1
3.562793958E0,7.689808960E0,8.393795013E0,5.777236176E0,1.276579079E1
3.572770958E0,7.058122559E0,8.157436523E0,5.443280640E0,1.208263915E1
3.582748958E0,6.098019104E0,8.556506653E0,5.124144287E0,1.169001701E1
3.592725958E0,4.762346649E0,9.239087219E0,4.776267700E0,1.143911760E1
3.602703958E0,3.388054504E0,9.547146606E0,4.283193054E0,1.099875740E1
3.612680958E0,2.169139252E0,9.240284729E0,3.747606812E0,1.020453741E1
3.622658958E0,1.312470703E0,8.604257355E0,3.104544067E0,9.240888369E0
3.632635958E0,8.105644226E-1,7.803123322E0,2.157613220E0,8.136402341E0
3.642613958E0,5.584886169E-1,7.942184143E0,3.153941345E-1,7.968040660E0
3.652591958E0,6.267466736E-1,9.499246216E0,-1.019679565E0,9.574353058E0
3.662568958E0,1.633852386E0,1.253029312E1,1.076561279E0,1.268214113E1
3.672546958E0,4.551435242E0,1.675151505E1,4.292473755E0,1.788167078E1
3.682523958E0,7.895032196E0,1.990590546E1,4.076323242E0,2.179892237E1
3.692501958E0,7.718549194E0,1.962913101E1,-4.825964355E-1,2.109767014E1
3.702478958E0,4.071982269E0,1.515268982E1,-4.346661072E0,1.628123186E1
3.712456958E0,1.089883575E0,1.001342697E1,-6.035000153E0,1.174213749E1
3.722433958E0,-4.704716492E-1,6.776258698E0,-4.129013672E0,7.949074123E0
3.732411958E0,-1.550326080E0,4.634362793E0,-1.199156342E0,5.031779544E0
3.742388958E0,-2.167492676E0,3.694617004E0,1.397344208E0,4.505639815E0
3.752366958E0,-1.690734100E0,5.228926392E0,1.139430542E0,5.612357345E0
3.762344958E0,-6.032455444E-1,8.400381317E0,-5.423222351E-1,8.439456432E0
3.772321958E0,1.190025330E-1,1.017164795E1,-1.713935852E0,1.031572391E1
3.782299958E0,5.218148804E-1,1.121647522E1,-2.081421661E0,1.141989156E1
3.792276958E0,1.057101746E0,1.205263641E1,-2.707719269E0,1.239819552E1
3.802254958E0,1.643282776E0,1.215292786E1,-3.118914185E0,1.265391874E1
3.812231958E0,2.070195007E0,1.132889145E1,-2.738854523E0,1.183768613E1
3.822209958E0,2.411185913E0,1.015428406E1,-2.126477966E0,1.065106618E1
3.832186958E0,2.630479889E0,9.136849823E0,-1.562450867E0,9.635491780E0
3.842164958E0,2.930456085E0,8.487649841E0,-1.094374237E0,9.045740858E0
3.852141958E0,3.381019135E0,8.220455475E0,-9.428892517E-1,8.938468479E0
3.862119958E0,3.954626312E0,8.189020844E0,-8.181985474E-1,9.130639655E0
3.872097958E0,4.332889709E0,8.210426331E0,-4.900808716E-1,9.296516177E0
3.882074958E0,4.231550446E0,7.796537018E0,-1.835183716E-1,8.872749722E0
3.892052958E0,5.186115417E0,9.179960175E0,-6.069877625E-1,1.056105563E1
3.902029958E0,5.039869537E0,9.201215973E0,-7.304809570E-1,1.051647578E1
3.912007958E0,4.943020935E0,9.167236633E0,-8.023315430E-1,1.044583263E1
3.921984958E0,4.907245331E0,9.019942932E0,-5.035528564E-1,1.028075837E1
3.931962958E0,4.775968323E0,8.777147827E0,-1.800755310E-1,9.994029447E0
3.941939958E0,4.521647186E0,8.652756500E0,-2.001338196E-1,9.765016225E0
3.951917958E0,4.190236359E0,8.552614746E0,-3.348536682E-1,9.529817769E0
3.961894958E0,3.797752533E0,8.405470734E0,-3.643423462E-1,9.230796710E0
3.971872958E0,4.088298340E0,9.170230408E0,-4.165837097E-1,1.004892288E1
3.981850958E0,3.862867126E0,8.887618103E0,-3.655398560E-1,9.697686186E0
3.991827958E0,3.630400543E0,8.444539490E0,-4.535568237E-1,9.203030430E0
4.001805958E0,3.647764435E0,8.383316803E0,-5.516029358E-1,9.159173095E0
4.011782958E0,3.831731873E0,8.516090698E0,-7.884104919E-1,9.371635985E0
4.021760958E0,3.979774017E0,8.566535797E0,-9.072633362E-1,9.489323662E0
4.031737958E0,4.120331726E0,8.646319885E0,-7.469467163E-1,9.606971973E0
4.041715958E0,4.170477448E0,8.572972412E0,-4.667294312E-1,9.544976400E0
4.051692958E0,4.216731262E0,8.695717163E0,-2.380050659E-1,9.667107423E0
4.061670958E0,4.167932739E0,8.880433044E0,-2.659968567E-1,9.813486063E0
4.071647958E0,4.119134216E0,8.990603943E0,-3.183879089E-1,9.894422510E0
4.081625958E0,3.996239777E0,9.168284454E0,-4.287084961E-1,1.001055259E1
4.091603958E0,3.746858368E0,9.264683990E0,-4.763095093E-1,1.000500814E1
4.101580958E0,3.398981781E0,9.318871307E0,-4.558021545E-1,9.929863805E0
4.111558958E0,3.121907959E0,9.368567963E0,-4.272116089E-1,9.884274618E0
4.121535958E0,2.850671997E0,9.365274811E0,-4.279600525E-1,9.798869982E0
4.131513958E0,2.548899536E0,9.314380646E0,-4.294569397E-1,9.666385515E0
4.141490958E0,2.340832214E0,9.238787842E0,-2.161505127E-1,9.533174565E0
4.151468958E0,2.253414001E0,9.220525818E0,9.295669556E-2,9.492344914E0
4.161445958E0,2.200274506E0,9.156459045E0,3.025209045E-1,9.421967366E0
4.171423958E0,2.446512451E0,9.155560913E0,5.233117676E-1,9.491236696E0
4.181401958E0,3.197800140E0,9.471853180E0,8.047265625E-1,1.002943235E1
4.191378958E0,3.977828064E0,9.774972839E0,7.113208008E-1,1.057729585E1
4.201356958E0,4.425547028E0,9.982591095E0,4.914280701E-1,1.093064925E1
4.211333958E0,4.726271667E0,1.002809647E1,5.273533630E-1,1.109857938E1
4.221311958E0,4.881947937E0,9.855205994E0,9.062155151E-1,1.103538524E1
4.231288958E0,4.891078949E0,9.507329407E0,1.316512299E0,1.077242639E1
4.241266958E0,4.875062256E0,9.163943481E0,1.354084167E0,1.046793371E1
4.251243958E0,5.014871521E0,9.079519043E0,8.449928284E-1,1.040675816E1
4.261221958E0,5.187462616E0,9.399403839E0,-2.755769348E-1,1.073939028E1
4.271198958E0,4.601131897E0,9.347312164E0,-1.604962463E0,1.054127905E1
4.281176958E0,4.910388794E0,1.049437683E1,-2.605332184E0,1.187567341E1
4.291154958E0,4.939727783E0,1.072444839E1,-1.971699829E0,1.197089404E1
4.301131958E0,6.306535492E0,1.199291061E1,2.097138977E-1,1.355161521E1
4.311109958E0,7.609276428E0,1.329325653E1,2.881358185E0,1.558569799E1
4.321086958E0,8.979377289E0,1.460946945E1,4.666246490E0,1.777187864E1
4.331064958E0,8.112829285E0,1.400906799E1,4.275409241E0,1.674368864E1
4.341041958E0,5.607489166E0,1.252804779E1,3.038980408E0,1.405814063E1
4.351019958E0,3.510799255E0,1.153486313E1,1.899998932E0,1.220609580E1
4.360996958E0,2.472558289E0,1.113279922E1,3.574566650E-1,1.140966863E1
4.370974958E0,1.704804840E0,1.069840256E1,-1.007255402E0,1.088010755E1
4.380951958E0,1.670526123E0,1.060469742E1,-2.465373230E0,1.101491398E1
4.390929958E0,2.063009949E0,1.123608444E1,-3.821103973E0,1.204601342E1
4.400907958E0,2.918930054E0,1.206326431E1,-3.973187714E0,1.303183483E1
4.410884958E0,3.817960510E0,1.236563553E1,-3.358416138E0,1.337029257E1
4.420862958E0,4.259691925E0,1.221489899E1,-2.689157867E0,1.321288396E1
4.430839500E0,4.607718201E0,1.164817749E1,-1.840572510E0,1.266091675E1
4.440817500E0,5.258564758E0,1.108654541E1,-1.150507507E0,1.232427117E1
4.450794500E0,5.802683258E0,1.071232361E1,-9.529183960E-1,1.222019081E1
4.460772500E0,5.991590424E0,1.022823029E1,-6.203100586E-1,1.187015733E1
4.470749500E0,5.604345703E0,9.509275360E0,-4.287084961E-1,1.104621200E1
4.480727500E0,4.475393372E0,8.641978912E0,-5.715115356E-1,9.748824072E0
4.490704500E0,3.231180725E0,7.849227448E0,-7.023394775E-1,8.517287194E0
4.500682500E0,2.336640930E0,7.365583191E0,-7.661068726E-1,7.765219013E0
4.510660500E0,1.775757294E0,7.190597076E0,-7.170089722E-1,7.441243320E0
4.520637500E0,1.392404480E0,7.143894196E0,-3.667373657E-1,7.287558632E0
4.530615500E0,1.026116180E0,7.120393066E0,1.182540894E-2,7.193959388E0
4.540592500E0,7.433541870E-1,7.100334778E0,5.373825073E-2,7.139342911E0
4.550570500E0,5.641767883E-1,7.106771393E0,-1.291813660E-1,7.130300338E0
4.560547500E0,4.046086121E-1,7.080725555E0,-2.853067017E-1,7.098012569E0
4.570525500E0,3.460803223E-1,7.072642365E0,-3.336561584E-1,7.088960998E0
4.580502500E0,2.576142883E-1,7.050488434E0,-2.140548706E-1,7.058439754E0
4.590480500E0,1.463955688E-1,6.955436096E0,4.700225830E-2,6.957135342E0
4.600458500E0,3.682342529E-2,6.829098816E0,4.050576782E-1,6.841200065E0
4.610435500E0,7.379653931E-2,6.776408386E0,8.732839966E-1,6.832845782E0
4.620413500E0,3.812571716E-1,6.843169556E0,1.428928528E0,7.001154429E0
4.630390500E0,9.237290955E-1,7.034621429E0,2.096689911E0,7.398329722E0
4.640368500E0,1.556613007E0,7.323071594E0,2.735860748E0,7.970906828E0
4.650345500E0,2.182311859E0,7.604336700E0,3.154240723E0,8.516904146E0
4.660323500E0,2.822680206E0,7.809110870E0,3.291205902E0,8.932064287E0
4.670300500E0,3.460803223E0,7.935448151E0,3.285517731E0,9.259758261E0
4.680278500E0,4.026027832E0,7.954907684E0,2.955304413E0,9.392724873E0
4.690255500E0,4.427792358E0,7.855514374E0,2.431842957E0,9.339609810E0
4.700233500E0,4.644242249E0,7.636968842E0,2.151326294E0,9.193502269E0
4.710211500E0,4.797373810E0,7.347321167E0,2.280807037E0,9.066421816E0
4.720188500E0,4.912484436E0,7.068750458E0,2.672392731E0,9.013402203E0
4.730166500E0,4.806355133E0,6.866371307E0,3.165916443E0,8.959415802E0
4.740143500E0,4.599635010E0,7.052883453E0,3.244652710E0,9.023723092E0
4.750121500E0,4.300407257E0,7.437284088E0,3.432212677E0,9.251312396E0
4.760098500E0,4.044289856E0,7.722291412E0,3.727249146E0,9.480635595E0
4.770076500E0,3.803440704E0,8.038883057E0,3.742667084E0,9.648697264E0
4.780053500E0,3.613785095E0,8.493038635E0,3.763024750E0,9.967522422E0
4.790031500E0,3.408112793E0,8.883576508E0,3.658092957E0,1.019386131E1
4.800008500E0,3.288511505E0,9.134155426E0,3.586541748E0,1.034941472E1
4.809986500E0,3.050656128E0,9.268875275E0,3.796555023E0,1.047054830E1
4.819964500E0,2.921624451E0,9.261091461E0,4.260440369E0,1.060448285E1
4.829941500E0,2.758613434E0,9.208550720E0,4.525688782E0,1.062493357E1
4.839919500E0,2.357148285E0,8.977281647E0,4.622387695E0,1.036890553E1
4.849896500E0,1.716929626E0,8.562793579E0,4.512665863E0,9.830230639E0
4.859874500E0,9.318122864E-1,8.128995667E0,4.096381531E0,9.150365366E0
4.869851500E0,1.303788757E-1,7.671996002E0,3.379372559E0,8.384311552E0
4.879829500E0,-5.089416504E-1,7.458090820E0,3.583547974E0,8.289991337E0
4.889806500E0,-4.179309082E-1,8.863967285E0,5.589825897E0,1.048764682E1
4.899784500E0,5.644761658E-1,1.260423935E1,5.177583160E0,1.363791957E1
4.909761500E0,2.246079254E0,1.716540436E1,6.511010284E0,1.849565445E1
4.919739500E0,3.656446381E0,2.116119507E1,7.452252960E0,2.273107677E1
4.929717500E0,3.067121887E0,2.161385376E1,4.964426422E0,2.238775202E1
4.939694500E0,2.273771667E-1,1.799887115E1,6.770420837E-1,1.801303554E1
4.949672500E0,-2.214794312E0,1.370654709E1,-1.059496765E0,1.392470037E1
4.959649500E0,-2.954406281E0,1.016326538E1,-8.900491333E-1,1.062133076E1
4.969627500E0,-2.329755249E0,7.207212524E0,-2.459685059E0,7.963775642E0
4.979604500E0,-4.420307922E-1,4.742587738E0,-5.873935089E0,7.562449544E0
4.989582500E0,1.964065704E0,4.151766357E0,-7.939789124E0,9.172511614E0
4.999559500E0,3.881877594E0,5.225782928E0,-8.894204407E0,1.102200766E1
5.009537500E0,4.102069702E0,6.005661163E0,-8.818012848E0,1.143032337E1
5.019515500E0,4.755460968E0,5.918991394E0,-6.621330872E0,1.007426874E1
5.029492500E0,8.249794464E0,6.798562317E0,1.674717407E0,1.082054697E1
5.039470500E0,1.148816025E1,8.124055939E0,5.369035034E0,1.506003479E1
5.049447500E0,1.170401138E1,9.707313538E0,1.793270874E-1,1.520683980E1
5.059425500E0,1.072834030E1,1.058658508E1,-2.919828186E0,1.535247426E1
5.069402500E0,9.992470551E0,1.249960693E1,-2.427501984E0,1.618587060E1
5.079380500E0,7.574698334E0,1.252176086E1,-2.245330811E-3,1.463456713E1
5.089357500E0,4.497846680E0,1.102083206E1,1.425036621E0,1.198833155E1
5.099335500E0,2.550695801E0,1.009859985E1,1.156045990E0,1.047970469E1
5.109312500E0,1.463057556E0,9.943672028E0,5.932164001E-1,1.006822013E1
5.119290500E0,9.928852844E-1,9.862840118E0,4.251159668E-2,9.912781831E0
5.129268500E0,1.122216339E0,9.922116852E0,-9.383985901E-1,1.002937507E1
5.139245500E0,8.307723999E-1,9.379944305E0,-1.252894592E0,9.499646457E0
5.149223500E0,5.167254639E-1,8.834029541E0,-9.385482788E-1,8.898761487E0
5.159200500E0,4.415817261E-1,8.765771484E0,-6.165678406E-1,8.798516923E0
5.169178500E0,7.565267944E-1,9.282646637E0,-1.977388000E-1,9.315522638E0
5.179155500E0,1.394799500E0,9.931247864E0,3.683839417E-1,1.003547988E1
5.189133500E0,2.023192749E0,1.007165588E1,7.518864441E-1,1.030033467E1
5.199110500E0,2.648143158E0,9.916728058E0,6.315367126E-1,1.028362758E1
5.209088500E0,3.158282318E0,9.689949646E0,2.782713318E-1,1.019545518E1
5.219065500E0,3.530258789E0,9.448651428E0,-1.185534668E-1,1.008730865E1
5.229043500E0,3.719465332E0,9.229507141E0,-4.013154602E-1,9.958879381E0
5.239021500E0,3.707041168E0,9.172475739E0,-3.583547974E-1,9.899741590E0
5.248998500E0,3.537743225E0,9.272767181E0,-2.930905151E-1,9.929035219E0
5.258976500E0,3.285068665E0,9.335187378E0,-4.038601685E-1,9.904569781E0
5.268953500E0,2.969225464E0,9.374256134E0,-6.051914978E-1,9.851864528E0
5.278931500E0,2.687960358E0,9.453740845E0,-7.268884277E-1,9.855288612E0
5.288908500E0,2.510279846E0,9.626781006E0,-7.464976501E-1,9.976656563E0
5.298886500E0,2.386487274E0,9.807155914E0,-7.912545776E-1,1.012431294E1
5.308863500E0,2.342329102E0,9.972112885E0,-9.499246216E-1,1.028746314E1
5.318841500E0,2.175276489E0,9.720336456E0,-1.138532410E0,1.002561842E1
5.328819500E0,2.411185913E0,1.043929138E1,-1.453477478E0,1.081227168E1
5.338796500E0,2.428549805E0,1.059017761E1,-1.729952545E0,1.100192946E1
5.348774500E0,2.254312134E0,1.037193146E1,-1.800904999E0,1.076578581E1
5.358751500E0,2.232307892E0,1.014889526E1,-1.777254181E0,1.054238616E1
5.368729500E0,2.256557465E0,9.950258331E0,-1.789678345E0,1.035869881E1
5.378706500E0,2.375859375E0,9.841734009E0,-1.749112701E0,1.027442608E1
5.388684500E0,2.445913696E0,9.705966339E0,-1.661395111E0,1.014635452E1
5.398661500E0,2.566712494E0,9.540410614E0,-1.783092041E0,1.003926616E1
5.408639500E0,2.764151917E0,9.370962982E0,-2.175426178E0,1.000939369E1
5.418616500E0,2.985691223E0,9.231303406E0,-2.586471405E0,1.004097351E1
5.428594708E0,3.194806366E0,9.131610718E0,-2.695744171E0,1.004291485E1
5.438572708E0,3.430416412E0,9.144334259E0,-2.501148834E0,1.008178314E1
5.448549708E0,3.605552216E0,9.155411224E0,-2.138902130E0,1.006958111E1
5.458527708E0,3.655248871E0,9.172475739E0,-1.694326630E0,1.001827821E1
5.468504708E0,3.588936768E0,9.098379822E0,-1.182840271E0,9.851908120E0
5.478482708E0,3.491489410E0,9.042246552E0,-7.036866760E-1,9.718430734E0
5.488459708E0,3.464695129E0,9.075926514E0,-3.760180664E-1,9.722033944E0
5.498437708E0,3.595523071E0,9.348958740E0,-1.802252197E-1,1.001814837E1
5.508414708E0,4.025129700E0,1.013242950E1,-3.472778320E-2,1.090270621E1
5.518392708E0,4.534221039E0,1.127485382E1,2.894979858E-1,1.215587505E1
5.528370708E0,4.900659027E0,1.205398361E1,7.210505676E-1,1.303207174E1
5.538347708E0,4.893024902E0,1.192165878E1,1.050216064E0,1.292944680E1
5.548325708E0,4.492008820E0,1.120629639E1,1.172511749E0,1.212988070E1
5.558302708E0,3.937262421E0,1.048569489E1,1.000818787E0,1.124515322E1
5.568280708E0,3.528462524E0,9.966125336E0,8.434959412E-1,1.060590342E1
5.578257708E0,3.261417847E0,9.650431824E0,7.381150818E-1,1.021334884E1
5.588235708E0,3.273842010E0,9.571845245E0,2.025288391E-1,1.011826471E1
5.598212708E0,3.481011200E0,9.582323456E0,-4.065545654E-1,1.020311954E1
5.608190708E0,3.790866852E0,9.670340424E0,-1.067579956E0,1.044154598E1
5.618168708E0,4.186943207E0,9.963131561E0,-1.946402435E0,1.098102756E1
5.628145708E0,4.654570770E0,1.032941986E1,-3.015030212E0,1.172400746E1
5.638123708E0,5.071304169E0,1.072983719E1,-3.681743774E0,1.242589109E1
5.648100708E0,5.232967987E0,1.074765015E1,-3.822600861E0,1.255022769E1
5.658078708E0,5.490582275E0,1.035651352E1,-4.264781342E0,1.247366129E1
5.668055708E0,5.316194916E0,1.036818924E1,-4.596491547E0,1.252553436E1
5.678033708E0,5.097649384E0,1.026191025E1,-4.482728119E0,1.230397020E1
5.688010708E0,4.783452759E0,1.021445892E1,-3.508853302E0,1.181222430E1
5.697988708E0,4.440815277E0,1.022688309E1,-2.708617401E0,1.147373462E1
5.707965708E0,3.988905029E0,1.078851517E1,-1.931433563E0,1.166335537E1
5.717943708E0,3.737727356E0,1.089943451E1,-1.476230164E0,1.161669204E1
5.727921708E0,3.358266449E0,1.127874573E1,-1.097517700E0,1.181916257E1
5.737898708E0,2.361638947E0,1.167048111E1,-9.458830261E-1,1.194454530E1
5.747876708E0,1.125359802E0,1.173230255E1,-7.827223206E-1,1.181211294E1
5.757853708E0,2.303709412E-1,1.185025726E1,-9.117539978E-1,1.188751292E1
5.767831708E0,-2.219883728E-1,1.198617462E1,-1.077010345E0,1.203651163E1
5.777808708E0,-5.060975647E-1,1.215262848E1,-4.216731262E-1,1.217046926E1
5.787786708E0,-3.456312561E-1,1.216325638E1,1.182241516E0,1.222546366E1
5.797763708E0,1.368154907E-1,1.165611099E1,1.986668701E0,1.182499448E1
5.807741708E0,4.896318054E-1,1.091919342E1,1.438358917E0,1.102440024E1
5.817718708E0,6.791377258E-1,1.024798920E1,7.885601807E-1,1.030069599E1
5.827696708E0,8.021818542E-1,9.778116302E0,4.119433594E-1,9.819610557E0
5.837674708E0,8.898994446E-1,9.444609833E0,6.661148071E-2,9.486675551E0
5.847651708E0,8.129594421E-1,9.148375854E0,-2.140548706E-1,9.186920230E0
5.857629708E0,6.137237549E-1,8.815318451E0,-3.492237854E-1,8.843554347E0
5.867606708E0,3.710783386E-1,8.489595795E0,-1.585203552E-1,8.499180231E0
5.877584708E0,1.838177490E-1,8.240064697E0,3.787124634E-1,8.250810767E0
5.887561708E0,7.229965210E-2,8.054899750E0,1.088237000E0,8.128400641E0
5.897539708E0,1.137634277E-2,7.869734802E0,1.803749084E0,8.073807407E0
5.907516708E0,5.284011841E-2,7.666607208E0,2.196681976E0,7.975278670E0
5.917494708E0,1.267863464E-1,7.466473389E0,2.360591125E0,7.831774390E0
5.927472708E0,2.145039368E-1,7.209906921E0,2.357148285E0,7.588472692E0
5.937449708E0,3.254232788E-1,6.988966370E0,2.308050385E0,7.367404414E0
5.947427708E0,5.516029358E-1,6.925947418E0,2.280058594E0,7.312433291E0
5.957404708E0,8.535250854E-1,6.854545898E0,2.412233734E0,7.316568604E0
5.967382708E0,1.277293854E0,6.857689362E0,2.607427826E0,7.447017043E0
5.977359708E0,1.815424805E0,6.950346680E0,2.893782349E0,7.744485940E0
5.987337708E0,2.339335327E0,7.118447113E0,3.241958313E0,8.164255801E0
5.997314708E0,2.833158417E0,7.329059143E0,3.497177582E0,8.600706109E0
6.007292708E0,3.253783722E0,7.510631561E0,3.603157196E0,8.943122315E0
6.017270708E0,3.651656342E0,7.703580322E0,3.748504944E0,9.312949755E0
6.027247708E0,4.057612152E0,7.874973907E0,3.944447479E0,9.697324184E0
6.037225708E0,4.239334259E0,8.050409088E0,4.258793793E0,1.004581336E1
6.047202708E0,4.330794067E0,8.166118469E0,4.710704041E0,1.037458436E1
6.057180708E0,4.430935822E0,8.119265900E0,5.038522339E0,1.053291880E1
6.067157708E0,4.514162750E0,7.922125854E0,5.279820557E0,1.053632994E1
6.077135708E0,4.525838470E0,7.687114563E0,5.347180481E0,1.040035015E1
6.087112708E0,4.294270020E0,7.417525177E0,5.186564484E0,1.001802804E1
6.097090708E0,3.935915222E0,7.095544739E0,5.100044403E0,9.583769441E0
6.107067708E0,3.371139679E0,6.889273682E0,4.886887665E0,9.094412881E0
6.117045708E0,2.575244751E0,6.765032043E0,4.522545319E0,8.535277397E0
6.127023708E0,1.632954254E0,6.565197601E0,3.928730164E0,7.823252510E0
6.137000708E0,7.056326294E-1,6.081852722E0,2.951861572E0,6.797082954E0
6.146978708E0,-1.293310547E-1,5.587879944E0,2.140099640E0,5.985077715E0
6.156955708E0,-1.827699280E-1,6.810836792E0,5.673202515E-1,6.836867332E0
6.166933708E0,1.122066650E0,1.080453186E1,-2.314187622E-1,1.086510455E1
6.176910708E0,3.034639435E0,1.621263565E1,3.662882996E0,1.689601441E1
6.186888708E0,5.566923523E0,2.026051804E1,8.231981506E0,2.256645183E1
6.196865708E0,8.066425781E0,2.478920059E1,6.804400177E0,2.694200350E1
6.206843708E0,7.585326233E0,2.450015167E1,3.507057037E0,2.588617498E1
6.216821708E0,3.824696503E0,1.707798615E1,2.299218750E-1,1.750253634E1
6.226798708E0,-4.659809875E-1,9.493707733E0,-3.657494202E0,1.018454165E1
6.236776708E0,-2.662213898E0,4.887636108E0,-5.266348572E0,7.662297100E0
6.246753708E0,-2.711611176E0,3.516487427E0,-2.998863831E0,5.358330268E0
6.256731708E0,-1.543290710E0,3.751947784E0,-1.174757080E0,4.223613689E0
6.266708708E0,-1.037342834E-1,4.959935760E0,-2.363135834E0,5.495100956E0
6.276686708E0,4.224215698E-1,6.751260681E0,-3.775748291E0,7.746885563E0
6.286663708E0,2.224374390E-1,8.456065521E0,-3.540138245E0,9.169901924E0
6.296641708E0,3.439846802E-1,9.893675995E0,-3.059936829E0,1.036177415E1
6.306619708E0,6.988966370E-1,1.112456635E1,-2.918780365E0,1.152231364E1
6.316596708E0,9.641450500E-1,1.185040695E1,-2.787503357E0,1.221195707E1
6.326574708E0,1.245410156E0,1.170685547E1,-2.645598450E0,1.206651162E1
6.336551708E0,1.472338257E0,1.123608444E1,-2.245480499E0,1.155246970E1
6.346529708E0,2.136507111E0,1.058179504E1,1.357676697E0,1.088036465E1
6.356506708E0,2.651735687E0,1.001118164E1,5.683830414E0,1.181361029E1
6.366484708E0,2.308798828E0,9.609117737E0,4.334685974E0,1.079144097E1
6.376461708E0,1.866019592E0,9.295669556E0,1.272503815E0,9.566126048E0
6.386439708E0,1.695075073E0,9.248966675E0,-9.651928711E-1,9.452420925E0
6.396416708E0,1.773362274E0,9.325756989E0,-1.840123444E0,9.669571420E0
6.406394708E0,2.291884003E0,9.477391663E0,-1.743274841E0,9.905185116E0
6.416372708E0,2.963237915E0,9.659263458E0,-1.170116730E0,1.017110233E1
6.426349708E0,3.468437347E0,9.633067932E0,-7.825726318E-1,1.026832388E1
6.436328000E0,3.669469299E0,9.318571930E0,-9.822573853E-1,1.006308190E1
6.446305000E0,3.901337128E0,8.951984253E0,-1.246757355E0,9.844432810E0
6.456283000E0,4.188739471E0,8.715326385E0,-1.488055573E0,9.783494353E0
6.466260000E0,4.566254425E0,8.597671051E0,-1.415007477E0,9.837320425E0
6.476238000E0,4.932093658E0,8.465795288E0,-1.068478088E0,9.855804541E0
6.486215000E0,5.216352539E0,8.408314819E0,-6.536906433E-1,9.916521737E0
6.496193000E0,5.389093323E0,8.470285950E0,-3.603007507E-1,1.004578954E1
6.506171000E0,5.477858734E0,8.495433655E0,-2.954855347E-1,1.011269702E1
6.516148000E0,5.443580017E0,8.417745209E0,-3.891906738E-1,1.003207193E1
6.526126000E0,5.214107208E0,8.435558167E0,-4.854405212E-1,9.928806981E0
6.536103000E0,4.888234863E0,8.456963654E0,-6.149212646E-1,9.787400190E0
6.546081000E0,4.495751038E0,8.383167114E0,-9.050180054E-1,9.555539014E0
6.556058000E0,4.084556122E0,8.389454041E0,-1.158141632E0,9.402543797E0
6.566036000E0,3.690874786E0,8.398585052E0,-1.168021088E0,9.247867907E0
6.576013000E0,3.279979248E0,8.379275208E0,-9.919871521E-1,9.052875531E0
6.585991000E0,3.031196594E0,8.507708130E0,-9.244775391E-1,9.078761432E0
6.595969000E0,2.924318848E0,8.793613586E0,-9.892927551E-1,9.319762915E0
6.605946000E0,2.899470520E0,9.093589783E0,-1.006806335E0,9.597601962E0
6.615924000E0,2.957849121E0,9.289083252E0,-1.075513458E0,9.807786105E0
6.625901000E0,2.997067566E0,9.435179443E0,-1.180145874E0,9.969842998E0
6.635879000E0,3.013683014E0,9.452094269E0,-1.252445526E0,9.999649552E0
6.645856000E0,3.095113678E0,9.399403839E0,-1.313518524E0,9.982677603E0
6.655834000E0,3.254232788E0,9.425449677E0,-1.330133972E0,1.005974100E1
6.665811000E0,3.421435089E0,9.473350067E0,-1.230740662E0,1.014718198E1
6.675789000E0,3.571572876E0,9.519903259E0,-1.007854156E0,1.021765437E1
6.685767000E0,3.717968445E0,9.584868164E0,-5.264552307E-1,1.029418002E1
6.695744000E0,3.945345612E0,9.642049255E0,2.031275940E-1,1.041998688E1
6.705722000E0,4.235592041E0,9.837692413E0,1.013841705E0,1.075863871E1
6.715699000E0,4.498894501E0,1.010473709E1,1.343905334E0,1.114234468E1
6.725677000E0,4.615202637E0,1.029544052E1,1.348695374E0,1.136288564E1
6.735654000E0,4.649181976E0,1.040471329E1,8.855584717E-1,1.143053653E1
6.745632000E0,4.702022095E0,1.039333694E1,4.505630493E-1,1.141636859E1
6.755609000E0,4.915328522E0,1.037537430E1,4.388873291E-1,1.148918920E1
6.765587000E0,5.457950134E0,1.055574921E1,5.294490051E-1,1.189509887E1
6.775564000E0,6.151008911E0,1.126647125E1,2.850073242E-1,1.283937359E1
6.785542000E0,6.742429047E0,1.219528976E1,1.549278259E-1,1.393590487E1
6.795520000E0,7.384294281E0,1.310479843E1,6.738986206E-1,1.505714725E1
6.805497000E0,7.659721527E0,1.383063904E1,1.599423981E0,1.589075414E1
6.815475000E0,6.896608429E0,1.389949585E1,2.249971161E0,1.567869774E1
6.825452000E0,4.978796539E0,1.313922684E1,3.231929169E0,1.441780368E1
6.835430000E0,3.141068115E0,1.245200592E1,2.938838654E0,1.317404771E1
6.845407000E0,1.647324371E0,1.190414520E1,1.593436432E0,1.212276331E1
6.855385000E0,8.143066406E-1,1.145627655E1,2.987786865E-1,1.148906595E1
6.865362000E0,5.896238708E-1,1.135014725E1,-6.301895142E-1,1.138290989E1
6.875340000E0,5.249583435E-1,1.150761978E1,-1.817370758E0,1.166206374E1
6.885318000E0,7.499404907E-1,1.208616669E1,-3.180735626E0,1.252018031E1
6.895295000E0,9.861492920E-1,1.319491104E1,-3.591331787E0,1.371042785E1
6.905273000E0,1.315314789E0,1.413405807E1,-3.086431732E0,1.452679288E1
6.915250000E0,1.967658234E0,1.452130280E1,-2.575843506E0,1.487867210E1
6.925228000E0,2.964136047E0,1.368723724E1,-2.157762909E0,1.416977440E1
6.935205000E0,3.668122101E0,1.220591766E1,-2.055375824E0,1.290984568E1
6.945183000E0,3.990551605E0,1.063373703E1,-1.906585236E0,1.151676745E1
6.955160000E0,3.945195923E0,9.313632202E0,-1.671723633E0,1.025197423E1
6.965138000E0,3.437601471E0,7.947273560E0,-1.316063232E0,8.758326515E0
6.975116000E0,2.539918213E0,6.897057495E0,-9.581575012E-1,7.412061280E0
6.985093000E0,1.591490479E0,6.256389771E0,-6.939569092E-1,6.492829206E0
6.995071000E0,7.764353943E-1,5.979315948E0,-5.225633240E-1,6.052118931E0
7.005048000E0,2.154020691E-1,5.930218048E0,-5.177732849E-1,5.956674687E0
7.015026000E0,-7.185058594E-2,6.120023346E0,-5.037025452E-1,6.141137070E0
7.025003000E0,-2.073188782E-1,6.405330048E0,-4.288581848E-1,6.423017475E0
7.034981000E0,-3.823049927E-1,6.674620056E0,-2.839595032E-1,6.691587480E0
7.044958000E0,-6.370751953E-1,6.924151154E0,-1.910028076E-1,6.956020132E0
7.054936000E0,-1.004411316E0,7.068151703E0,-4.221221924E-2,7.139285150E0
7.064914000E0,-1.430425415E0,7.104526062E0,1.561253357E-1,7.248778004E0
7.074891000E0,-1.703158264E0,7.003186798E0,5.035528564E-1,7.224883313E0
7.084869000E0,-1.642983398E0,6.863676910E0,8.556207275E-1,7.109257486E0
7.094846000E0,-1.445394287E0,6.660100250E0,1.193168793E0,6.918796988E0
7.104824000E0,-1.112336884E0,6.483916626E0,1.480720825E0,6.743218988E0
7.114801000E0,-6.481521606E-1,6.421496429E0,1.646276550E0,6.660776539E0
7.124779000E0,-1.155596924E-1,6.453978882E0,1.846560059E0,6.713939343E0
7.134756000E0,5.846841431E-1,6.667135620E0,2.248474274E0,7.060325027E0
7.144734000E0,1.402283936E0,7.009324036E0,2.913092194E0,7.719010934E0
7.154712000E0,2.292183380E0,7.387437744E0,3.718716888E0,8.582377081E0
7.164689000E0,3.255280609E0,7.755971375E0,4.382586365E0,9.484672216E0
7.174667000E0,4.382885742E0,8.206235046E0,4.630620575E0,1.039204638E1
7.184644000E0,5.365592194E0,8.712781677E0,4.891827393E0,1.134161009E1
7.194622000E0,6.135441284E0,9.266779633E0,5.203628998E0,1.227169912E1
7.204599000E0,6.854545898E0,9.659862213E0,5.519621887E0,1.306766862E1
7.214577000E0,7.648943939E0,9.836045837E0,5.702092438E0,1.370284639E1
7.224554000E0,8.178692322E0,9.841734009E0,5.425317993E0,1.389909392E1
7.234532000E0,7.981252899E0,9.842183075E0,4.613855438E0,1.348542278E1
7.244510000E0,6.874005432E0,9.785301361E0,3.769611053E0,1.253850234E1
7.254487000E0,5.438640289E0,9.340426483E0,3.347039795E0,1.131481553E1
7.264465000E0,4.167034607E0,8.668324127E0,3.168012085E0,1.012621949E1
7.274442000E0,3.162024536E0,7.940387878E0,3.044219513E0,9.072785199E0
7.284420000E0,2.618355103E0,7.605384521E0,2.978506165E0,8.577246419E0
7.294397000E0,2.540816345E0,8.907077637E0,2.435734863E0,9.577295237E0
7.304375000E0,2.706072693E0,1.126976440E1,1.877695312E0,1.174121624E1
7.314352000E0,2.659818878E0,1.369382355E1,3.156486053E0,1.430240693E1
7.324330000E0,2.869532776E0,1.620440277E1,5.724695435E0,1.742380628E1
7.334307000E0,3.452270966E0,1.783750671E1,5.509293365E0,1.898544532E1
7.344285000E0,3.413202209E0,1.741733047E1,1.861528931E0,1.784596986E1
7.354263000E0,1.597777405E0,1.447849182E1,-2.894081726E0,1.485110525E1
7.364240000E0,-5.101391602E-1,1.069001999E1,-5.004692688E0,1.181455535E1
7.374218000E0,-7.343728638E-1,8.085735626E0,-4.168082428E0,9.126408672E0
7.384195000E0,-5.969586182E-1,6.819668427E0,-2.220033417E0,7.196720462E0
7.394173000E0,-4.300556946E-1,6.341113586E0,-1.639091492E0,6.563633928E0
7.404150000E0,-7.544311523E-2,6.532266083E0,-2.573747864E0,7.021422214E0
7.414128000E0,-7.484436035E-3,6.917415161E0,-3.314557343E0,7.670526638E0
7.424106000E0,2.080673218E-2,7.597750397E0,-3.276985474E0,8.274350597E0
7.434082708E0,2.899470520E-1,8.897497559E0,-3.196752319E0,9.458792602E0
7.444060708E0,6.105802917E-1,9.997110901E0,-3.216511230E0,1.051955223E1
7.454037708E0,1.211730194E0,1.073851913E1,-3.319048004E0,1.130487341E1
7.464015708E0,1.621727600E0,1.098775085E1,-3.217708740E0,1.156349077E1
7.473992708E0,1.651066589E0,1.042596909E1,-2.472558289E0,1.084160490E1
7.483970708E0,1.989662476E0,9.941277008E0,-1.110390930E0,1.019905453E1
7.493947708E0,2.645748138E0,9.562265167E0,9.996212769E-1,9.971767197E0
7.503925708E0,3.153043213E0,8.950187988E0,3.489992523E0,1.011076626E1
7.513902708E0,3.019820251E0,8.435109100E0,3.682941284E0,9.686817661E0
7.523880708E0,2.728376312E0,8.457263031E0,1.637295227E0,9.036042880E0
7.533858708E0,2.433639221E0,8.860674133E0,-2.604583740E-1,9.192496098E0
7.543835708E0,2.107168121E0,9.158255310E0,-9.683363342E-1,9.447299777E0
7.553813708E0,1.925296326E0,9.353748779E0,-9.193881226E-1,9.593990655E0
7.563790708E0,1.881736908E0,9.449998627E0,-4.635859680E-1,9.646674027E0
7.573768708E0,1.905088348E0,9.335935822E0,2.694396973E-2,9.528367397E0
7.583745708E0,2.030078430E0,9.210346985E0,2.341131592E-1,9.434326631E0
7.593723708E0,2.267784119E0,9.121731262E0,7.319778442E-2,9.399690630E0
7.603701708E0,2.609822845E0,9.061556396E0,-4.700225830E-1,9.441604781E0
7.613678708E0,3.002156982E0,9.088200989E0,-1.040635986E0,9.627630395E0
7.623656708E0,3.354075165E0,9.109905853E0,-1.254541168E0,9.788466602E0
7.633633708E0,3.633094940E0,9.031768341E0,-1.124611359E0,9.799845352E0
7.643611708E0,3.844754791E0,8.838819580E0,-8.858578491E-1,9.679442913E0
7.653588708E0,3.970193939E0,8.725804596E0,-6.911128235E-1,9.611438118E0
7.663566708E0,3.976031799E0,8.635841675E0,-6.484515381E-1,9.529274878E0
7.673543708E0,3.889960785E0,8.514593811E0,-7.161108398E-1,9.388445953E0
7.683521708E0,3.725153503E0,8.509803772E0,-7.502398682E-1,9.319677501E0
7.693499708E0,3.679797821E0,8.585995331E0,-8.336164856E-1,9.378440396E0
7.703476708E0,3.577261047E0,8.692424011E0,-8.643026733E-1,9.439388270E0
7.713454708E0,3.401676178E0,8.691076813E0,-8.235873413E-1,9.369338989E0
7.723431708E0,3.205583954E0,8.745114441E0,-8.146060181E-1,9.349672616E0
7.733409708E0,3.074157257E0,8.901389465E0,-8.202941895E-1,9.452939216E0
7.743386708E0,2.958597565E0,9.106163635E0,-7.441026306E-1,9.603603721E0
7.753364708E0,2.910248108E0,9.260193329E0,-6.182144165E-1,9.726402912E0
7.763341708E0,2.939736786E0,9.353000336E0,-5.457650757E-1,9.819293619E0
7.773319708E0,2.988385620E0,9.323811035E0,-7.087760925E-1,9.816632029E0
7.783297708E0,3.085234222E0,9.277706909E0,-1.058149567E0,9.834337609E0
7.793274708E0,3.206033020E0,9.335935822E0,-1.266516266E0,9.952005267E0
7.803252708E0,3.355122986E0,9.515113220E0,-1.290616150E0,1.017152495E1
7.813229708E0,3.554208984E0,9.782457275E0,-1.192270660E0,1.047618161E1
7.823207708E0,3.773952026E0,1.005548950E1,-1.020727386E0,1.078876580E1
7.833184708E0,3.981570282E0,1.033959869E1,-7.482939148E-1,1.110496046E1
7.843162708E0,4.137246552E0,1.050725006E1,-1.676513672E-1,1.129368053E1
7.853139708E0,4.247866516E0,1.038540344E1,8.467890930E-1,1.125246757E1
7.863117708E0,4.344715118E0,1.011311966E1,1.722019043E0,1.114078490E1
7.873095708E0,4.820575562E0,1.017793488E1,1.415157166E0,1.135037342E1
7.883072708E0,5.728587341E0,1.093730576E1,2.484832764E-2,1.234673996E1
7.893050708E0,6.580166473E0,1.179322586E1,-9.536668396E-1,1.353839900E1
7.903027708E0,7.294181671E0,1.194171707E1,-2.936892700E-1,1.399628330E1
7.913005708E0,7.853119354E0,1.157722504E1,1.710642700E0,1.409361279E1
7.922982708E0,7.735913086E0,1.094044922E1,3.121758270E0,1.375802148E1
7.932960708E0,6.593788147E0,1.080992065E1,3.403771820E0,1.311175386E1
7.942937708E0,5.164560242E0,1.133562744E1,2.582729187E0,1.272162026E1
7.952915708E0,3.811823273E0,1.208407104E1,1.774559784E0,1.279467984E1
7.962893708E0,2.620750122E0,1.280512161E1,1.156045990E0,1.312158196E1
7.972870708E0,1.675166473E0,1.318712723E1,8.301736450E-1,1.331899754E1
7.982848708E0,6.483018494E-1,1.301049454E1,3.933819580E-1,1.303257506E1
7.992825708E0,3.697311401E-2,1.278551239E1,-2.457888794E-1,1.278792815E1
8.002803708E0,-2.338137817E-1,1.307815384E1,-6.429130554E-1,1.309603428E1
8.012780708E0,-2.945874023E-1,1.392479324E1,-9.753717041E-1,1.396201986E1
8.022758708E0,-2.691403198E-1,1.489866806E1,-9.205856323E-1,1.492950851E1
8.032735708E0,-3.146456909E-1,1.556358536E1,-3.643423462E-1,1.557102875E1
8.042713708E0,-4.355941772E-2,1.505209900E1,-3.878434753E-1,1.505715791E1
8.052691708E0,5.945635986E-1,1.329445404E1,-1.197060699E0,1.336147329E1
8.062668708E0,1.303489380E0,1.117546051E1,-2.184108124E0,1.146125344E1
8.072646708E0,1.886826324E0,9.407337341E0,-2.194137268E0,9.842375109E0
8.082623708E0,2.414479065E0,8.128546600E0,-1.294508057E0,8.577804503E0
8.092601708E0,2.638263702E0,7.166646881E0,-4.574487305E-1,7.650524310E0
8.102578708E0,2.877017212E0,6.593638458E0,-2.082170105E-1,7.196988987E0
8.112556708E0,2.952909393E0,6.403982849E0,-1.709445190E-1,7.054069198E0
8.122533708E0,2.759661255E0,6.440955963E0,-7.918533325E-2,7.007703923E0
8.132511708E0,2.346969452E0,6.669380951E0,-6.301895142E-2,7.070564282E0
8.142489708E0,1.714235229E0,6.995253296E0,-1.249900818E-1,7.203318237E0
8.152466708E0,9.442364502E-1,7.176825714E0,-2.359094238E-1,7.242517729E0
8.162444708E0,3.746708679E-1,7.263345795E0,-1.375639343E-1,7.274303694E0
8.172421708E0,-6.197113037E-2,7.259902954E0,7.349716187E-2,7.260539454E0
8.182399708E0,-3.980223083E-1,7.201823730E0,1.622625732E-1,7.214639003E0
8.192376708E0,-7.439529419E-1,7.046596527E0,1.160087585E-1,7.086709154E0
8.202354708E0,-1.108894043E0,6.753206635E0,2.465373230E-1,6.848081958E0
8.212331708E0,-1.387614441E0,6.489904175E0,5.671705627E-1,6.660781672E0
8.222309708E0,-1.559457092E0,6.212830353E0,9.572593689E-1,6.476689966E0
8.232287708E0,-1.448088684E0,5.999823303E0,1.121168518E0,6.273106037E0
8.242264708E0,-1.166673889E0,6.008205872E0,1.174757080E0,6.232152113E0
8.252242708E0,-6.965016174E-1,6.226302338E0,1.244661713E0,6.387576855E0
8.262219708E0,-2.574645996E-2,6.504124603E0,1.500180359E0,6.674941261E0
8.272197708E0,7.946974182E-1,6.735842743E0,2.064057770E0,7.089672483E0
8.282174708E0,1.657353516E0,7.021448822E0,2.890040131E0,7.771737013E0
8.292152708E0,2.708617401E0,7.604336700E0,3.699257355E0,8.879586131E0
8.302130708E0,3.975433044E0,8.336913300E0,4.441114655E0,1.024849699E1
8.312107708E0,5.238207092E0,9.172176361E0,5.322182465E0,1.182764807E1
8.322085708E0,6.654112701E0,9.970466309E0,6.233188019E0,1.351073822E1
8.332062708E0,8.083639984E0,1.059751236E1,6.805148621E0,1.496537842E1
8.342040708E0,9.221124573E0,1.092458221E1,6.809938660E0,1.583511602E1
8.352017708E0,9.617350616E0,1.077414505E1,6.340215454E0,1.577257006E1
8.361995708E0,8.796607361E0,1.019350250E1,5.508095856E0,1.454740232E1
8.371972708E0,6.991062012E0,9.679172058E0,4.594096527E0,1.279324207E1
8.381950708E0,5.010380859E0,9.049880676E0,3.555107117E0,1.093814624E1
8.391928708E0,3.310964813E0,8.216264191E0,2.496957550E0,9.203492938E0
8.401905708E0,2.062261505E0,7.329807587E0,1.835932159E0,7.832601654E0
8.411883708E0,1.374292145E0,6.788682861E0,1.614093475E0,7.111975228E0
8.421860708E0,1.307381287E0,8.183632050E0,1.214125214E0,8.375868873E0
8.431839083E0,1.912572784E0,1.135808075E1,1.864522705E0,1.166792089E1
8.441816083E0,2.688708801E0,1.486259308E1,4.760400696E0,1.583626354E1
8.451794083E0,3.811374207E0,1.784843399E1,6.492299194E0,1.937119300E1
8.461771083E0,4.662354584E0,1.868699020E1,4.554279327E0,1.979097303E1
8.471749083E0,4.444407806E0,1.639735153E1,1.064586182E0,1.702231599E1
8.481727083E0,2.750380554E0,1.244347366E1,-3.077899475E0,1.311022865E1
8.491704083E0,6.478527832E-1,8.897497559E0,-5.183271332E0,1.031753254E1
8.501682083E0,-4.302053833E-1,6.515500946E0,-3.694467316E0,7.502394151E0
8.511659083E0,-8.087681580E-1,5.417384491E0,-9.533674622E-1,5.559772493E0
8.521637083E0,-3.124003601E-1,5.709127808E0,-1.506467285E0,5.912797814E0
8.531614083E0,3.447331238E-1,6.889423370E0,-3.442092133E0,7.709149989E0
8.541592083E0,3.335064697E-1,8.000562744E0,-3.943549347E0,8.925906802E0
8.551569083E0,2.698887634E-1,9.186247101E0,-3.577261047E0,9.861884827E0
8.561547083E0,5.063969421E-1,1.059975769E1,-3.247496796E0,1.109763652E1
8.571525083E0,7.562274170E-1,1.152004395E1,-2.900817719E0,1.190369841E1
8.581502083E0,1.154698792E0,1.183753372E1,-2.624192963E0,1.217977515E1
8.591480083E0,1.297950897E0,1.135044662E1,-2.111060028E0,1.161782637E1
8.601457083E0,1.478026428E0,1.021296204E1,2.371069336E-1,1.032208193E1
8.611435083E0,2.063009949E0,9.401798859E0,2.570005646E0,9.962668360E0
8.621412083E0,2.410587158E0,8.983867950E0,2.335593109E0,9.590401919E0
8.631390083E0,2.371069336E0,8.763526154E0,1.095122681E0,9.144432958E0
8.641367083E0,2.292183380E0,8.794811096E0,-8.622070312E-2,9.089017597E0
8.651345083E0,2.266287231E0,8.994944916E0,-1.144819336E0,9.346427294E0
8.661323083E0,2.334096222E0,9.277706909E0,-1.496737518E0,9.683185109E0
8.671300083E0,2.410886536E0,9.547296295E0,-8.996292114E-1,9.888001474E0
8.681278083E0,2.461780701E0,9.610764313E0,-1.844165039E-1,9.922759915E0
8.691255083E0,2.467618561E0,9.544601898E0,9.145980835E-2,9.858850422E0
8.701233083E0,2.419418793E0,9.318122864E0,5.807922363E-2,9.627272417E0
8.711210083E0,2.418370972E0,9.025631104E0,-2.380050659E-1,9.347041317E0
8.721188083E0,2.587968292E0,8.837173004E0,-6.324348450E-1,9.230015191E0
8.731166083E0,2.862048340E0,8.831484833E0,-8.620573425E-1,9.323603805E0
8.741143083E0,3.265908508E0,8.932824097E0,-9.125024414E-1,9.554798032E0
8.751121083E0,3.649261322E0,9.137149200E0,-9.711804199E-1,9.886748460E0
8.761098083E0,3.991449738E0,9.243278503E0,-9.142987061E-1,1.010968895E1
8.771076083E0,4.282594299E0,9.193282471E0,-6.857240295E-1,1.016500241E1
8.781053083E0,4.408482513E0,9.111552429E0,-3.990701294E-1,1.012987476E1
8.791031083E0,4.459975433E0,9.057814178E0,-1.634600830E-1,1.009762832E1
8.801008083E0,4.361480255E0,8.905131683E0,-4.296066284E-2,9.915932933E0
8.810986083E0,4.131408691E0,8.747210083E0,-1.552272034E-1,9.675035788E0
8.820964083E0,3.806883545E0,8.696914673E0,-3.376977539E-1,9.499617199E0
8.830941083E0,3.472029877E0,8.600664825E0,-3.369493103E-1,9.281161659E0
8.840919083E0,3.097209320E0,8.547375641E0,-2.609074402E-1,9.094966114E0
8.850896083E0,2.777025146E0,8.530011749E0,-1.550775146E-1,8.972013048E0
8.860874083E0,2.637664948E0,8.682993622E0,-4.445755005E-2,9.074890142E0
8.870851083E0,2.662962341E0,8.893006897E0,-7.933502197E-3,9.283156954E0
8.880829083E0,2.773881683E0,9.174272003E0,-2.267784119E-1,9.587132774E0
8.890807083E0,2.891836395E0,9.330097961E0,-5.893244934E-1,9.785742132E0
8.900784083E0,3.043620758E0,9.155560913E0,-6.984475708E-1,9.673456051E0
8.910762083E0,3.193459167E0,9.018595734E0,-6.890171814E-1,9.592079813E0
8.920739083E0,3.284170532E0,8.837622070E0,-7.613168335E-1,9.458802422E0
8.930717083E0,3.364104309E0,8.713979187E0,-1.018032990E0,9.396117403E0
8.940694083E0,3.419489136E0,8.657247162E0,-1.230740662E0,9.389119072E0
8.950672083E0,3.552861786E0,8.572373657E0,-1.093476105E0,9.343666678E0
8.960649083E0,3.748205566E0,8.689579926E0,-8.066725159E-1,9.497818950E0
8.970627083E0,3.973187714E0,9.055269470E0,-6.837780762E-1,9.912198457E0
8.980605083E0,4.311783600E0,9.803563385E0,-8.533753967E-1,1.074381601E1
8.990582083E0,4.798721008E0,1.089359665E1,-1.097966766E0,1.195423366E1
9.000560083E0,5.217100983E0,1.204649918E1,-1.043180695E0,1.316907404E1
9.010537083E0,5.659730530E0,1.324415863E1,-2.944377136E-1,1.440579679E1
9.020515083E0,5.987698517E0,1.414229095E1,1.113833771E0,1.539797235E1
9.030492083E0,5.952521667E0,1.430739761E1,2.463427277E0,1.569084493E1
9.040470083E0,5.572162628E0,1.385578674E1,2.715203705E0,1.517906960E1
9.050448083E0,4.718038788E0,1.335642517E1,2.348017273E0,1.435852250E1
9.060425083E0,3.529210968E0,1.300181259E1,2.291285248E0,1.366573997E1
9.070403083E0,2.378254395E0,1.249152374E1,2.276915131E0,1.291815010E1
9.080380083E0,1.460812225E0,1.196851135E1,2.265538788E0,1.226832924E1
9.090358083E0,7.571255493E-1,1.143951141E1,2.005080414E0,1.163855695E1
9.100335083E0,2.820135498E-1,1.123728195E1,1.915416870E0,1.140284434E1
9.110313083E0,-1.086740112E-1,1.141092087E1,1.668131104E0,1.153271809E1
9.120290083E0,-4.968168640E-1,1.162153290E1,1.067879333E0,1.168106246E1
9.130268083E0,-7.652087402E-1,1.158755356E1,-4.071533203E-2,1.161286354E1
9.140246083E0,-7.217990112E-1,1.128443390E1,-8.589138794E-1,1.134006946E1
9.150223083E0,-3.408412170E-1,1.125150238E1,-1.436263275E0,1.134792187E1
9.160201083E0,1.995350647E-1,1.152573212E1,-1.381477203E0,1.160994377E1
9.170178083E0,8.343649292E-1,1.151525391E1,-7.628137207E-1,1.157061460E1
9.180156083E0,1.348695374E0,1.097727264E1,-5.248086548E-1,1.107225894E1
9.190133083E0,1.623673553E0,1.004995102E1,-8.202941895E-1,1.021326167E1
9.200111083E0,1.914069672E0,9.111103363E0,-1.008452911E0,9.364445764E0
9.210088083E0,2.203567657E0,8.279881897E0,-7.852670288E-1,8.603999009E0
9.220066083E0,2.174977112E0,7.614365845E0,-2.312690735E-1,7.922283638E0
9.230044083E0,1.948797455E0,7.155120850E0,2.974314880E-1,7.421726981E0
9.240021083E0,1.543290710E0,7.008425903E0,6.036946106E-1,7.201682237E0
9.249999083E0,1.001567230E0,7.083419952E0,7.433541870E-1,7.192395330E0
9.259976083E0,4.640350342E-1,7.298073578E0,7.574249268E-1,7.351931650E0
9.269954083E0,7.214996338E-2,7.519014130E0,7.470964050E-1,7.556383536E0
9.279931083E0,-2.079176331E-1,7.653584290E0,8.526269531E-1,7.703736427E0
9.289909083E0,-4.026626587E-1,7.731272736E0,1.064885559E0,7.814646286E0
9.299887083E0,-4.101470947E-1,7.729626160E0,1.264570312E0,7.843116682E0
9.309864083E0,-3.116519165E-1,7.691305847E0,1.527723083E0,7.847754480E0
9.319842083E0,-1.092727661E-1,7.550598450E0,1.787582703E0,7.760085657E0
9.329819083E0,8.592132568E-2,7.457042999E0,2.056273956E0,7.735834496E0
9.339797083E0,3.829037476E-1,7.444768524E0,2.266885986E0,7.791660011E0
9.349774083E0,9.833052063E-1,7.489076385E0,2.375260620E0,7.918018518E0
9.359752083E0,1.729503479E0,7.655081177E0,2.193837891E0,8.148887948E0
9.369729083E0,2.488574982E0,7.910300446E0,1.916614380E0,8.511126204E0
9.379707083E0,3.225342865E0,8.118218079E0,1.792522430E0,8.917479354E0
9.389685083E0,3.954925690E0,8.208181000E0,1.829046478E0,9.293066424E0
9.399662083E0,4.535867615E0,8.268954620E0,2.140698395E0,9.671209601E0
9.409640083E0,4.899760895E0,8.198151855E0,2.561024323E0,9.888184679E0
9.419617083E0,4.970413971E0,8.095315704E0,2.736758881E0,9.885797923E0
9.429595083E0,4.649331665E0,8.102201385E0,2.820434875E0,9.757909874E0
9.439576625E0,3.991150360E0,8.216713257E0,2.986888733E0,9.610679593E0
9.449554625E0,3.207679596E0,8.252638550E0,3.161276093E0,9.401538063E0
9.459532625E0,2.426753540E0,8.278834076E0,3.242257690E0,9.216314954E0
9.469509625E0,1.829495544E0,8.404422913E0,3.305875397E0,9.214672570E0
9.479487625E0,1.635648651E0,8.699908447E0,3.260819092E0,9.433805947E0
9.489464625E0,1.775757294E0,9.237590332E0,2.814597015E0,9.818775151E0
9.499442625E0,1.935475159E0,9.772877197E0,2.318079529E0,1.022881643E1
9.509419625E0,1.863774261E0,9.897717590E0,1.596879272E0,1.019747476E1
9.519397625E0,1.609752502E0,9.501341858E0,1.829196167E-1,9.638478086E0
9.529374625E0,1.349892883E0,9.030870209E0,-1.109193420E0,9.198322541E0
9.539352625E0,1.513652344E0,9.145082703E0,-1.355880432E0,9.368142441E0
9.549330625E0,1.967957611E0,1.051069290E1,-2.832110596E-1,1.069708983E1
9.559307625E0,2.449057159E0,1.359428055E1,3.559448090E0,1.426436172E1
9.569285625E0,4.463717651E0,1.813823135E1,1.055544983E1,2.145548259E1
9.579262625E0,6.123615875E0,1.990785141E1,9.102122040E0,2.273037274E1
9.589240625E0,4.322112122E0,1.581341583E1,5.519023132E-1,1.640272446E1
9.599217625E0,1.385818176E0,1.045455963E1,-2.748584290E0,1.089830375E1
9.609195625E0,-9.160949707E-2,6.958429871E0,-2.296973419E0,7.328316686E0
9.619173625E0,-2.278262329E-1,5.309758301E0,-1.572030945E0,5.542266621E0
9.629150625E0,-3.272195435E-1,4.970413971E0,-4.638853455E-1,5.002726985E0
9.639128625E0,-1.845661926E-1,5.542823639E0,3.001258850E-1,5.554010634E0
9.649105625E0,4.882846069E-1,7.003635864E0,-5.403762817E-2,7.020844482E0
9.659083625E0,1.495540009E0,8.997190247E0,-6.735992432E-1,9.145480206E0
9.669060625E0,2.525847473E0,1.078252762E1,-1.357227631E0,1.115727898E1
9.679038625E0,3.531605988E0,1.217642899E1,-1.542691956E0,1.277174859E1
9.689015625E0,3.620970154E0,1.190878555E1,2.140548706E-1,1.244895247E1
9.698993625E0,3.189716949E0,1.037776932E1,3.172502747E0,1.131093117E1
9.708971625E0,2.701282654E0,9.093440094E0,4.696034546E0,1.058491007E1
9.718948625E0,2.155218201E0,8.450826416E0,3.252586212E0,9.308101293E0
9.728926625E0,2.176024933E0,9.259893951E0,9.550140381E-1,9.559956711E0
9.738903625E0,2.077829132E0,9.154962158E0,2.618055725E-1,9.391445479E0
9.748881625E0,2.686014404E0,1.010937744E1,-5.845344543E-1,1.047644339E1
9.758858625E0,3.518583069E0,1.160596527E1,-1.079255676E0,1.217553488E1
9.768836625E0,3.815415802E0,1.179068115E1,-1.057999878E0,1.243772180E1
9.778814625E0,3.837420044E0,1.114791779E1,-9.529183960E-1,1.182835225E1
9.788791625E0,3.609743500E0,9.862091675E0,-8.071215820E-1,1.053292673E1
9.798769625E0,4.033063202E0,9.924511871E0,-6.533912659E-1,1.073258845E1
9.808746625E0,3.855831757E0,9.525741119E0,-4.879852295E-2,1.027665139E1
9.818724625E0,3.759282532E0,9.503138123E0,6.045927429E-1,1.023754715E1
9.828701625E0,3.478316803E0,9.057963867E0,1.254391479E0,9.783603384E0
9.838679625E0,3.622916107E0,9.300758972E0,1.712888031E0,1.012737004E1
9.848657625E0,3.615880737E0,9.414073334E0,1.784588928E0,1.024129522E1
9.858634625E0,3.517684937E0,9.158404999E0,2.085163879E0,1.002987527E1
9.868612625E0,3.540587311E0,9.014853516E0,2.165247345E0,9.924295364E0
9.878589625E0,3.524271240E0,8.935967560E0,2.043251038E0,9.820737182E0
9.888567625E0,3.586990814E0,8.969797211E0,1.807191925E0,9.828006296E0
9.898544625E0,3.517235870E0,8.863218842E0,1.936373291E0,9.730217774E0
9.908522625E0,3.085084534E0,8.561296692E0,2.594404907E0,9.462794748E0
9.918499625E0,1.971101074E0,7.108118591E0,3.669918365E0,8.238864616E0
9.928477625E0,-1.493444366E0,2.375110931E0,4.684358826E0,5.460288053E0
9.938455625E0,-3.275039520E0,3.236270142E-1,4.207749939E0,5.341888978E0
9.948432625E0,-9.376501465E-1,4.324956207E0,2.217937775E0,4.950119389E0
9.958410625E0,1.096020813E0,8.789721680E0,-5.837860107E-3,8.857793343E0
9.968387625E0,1.613195343E0,1.100840790E1,-1.040486298E0,1.117452708E1
9.978365625E0,1.667981415E0,1.225980560E1,-1.565893707E0,1.247144813E1
9.988342625E0,1.495989075E0,1.323158478E1,-1.733245697E0,1.342821506E1
9.998320625E0,1.398691406E0,1.342453354E1,-1.607357483E0,1.359257284E1
1.000829762E1,1.250948639E0,1.249242188E1,-7.767347717E-1,1.257890272E1
1.001827563E1,1.441053314E0,1.164847687E1,-8.202941895E-2,1.173756264E1
1.002825363E1,1.895957336E0,1.077234879E1,3.177891541E-1,1.094253821E1
1.003823062E1,2.430046692E0,9.845775604E0,8.032296753E-1,1.017298393E1
1.004820863E1,2.893782349E0,9.320517883E0,1.402283936E0,9.859636410E0
1.005818562E1,3.291505280E0,9.223968658E0,2.053429871E0,1.000660677E1
1.006816362E1,3.369642792E0,9.189540253E0,2.310295715E0,1.005681902E1
1.007814062E1,3.262315979E0,9.412576447E0,2.236499176E0,1.020985942E1
1.008811862E1,2.840493164E0,9.893675995E0,2.165995789E0,1.051878148E1
1.009809662E1,2.075733490E0,1.027313690E1,2.233505402E0,1.071608873E1
1.010807362E1,1.280736694E0,1.023571472E1,2.263443146E0,1.056093354E1
1.011805162E1,5.357359314E-1,9.919572144E0,2.168690186E0,1.016799595E1
1.012802862E1,-1.055305481E-1,9.671837311E0,2.164648590E0,9.911673783E0
1.013800662E1,-4.950205994E-1,9.498198395E0,2.283800812E0,9.781439786E0
1.014798363E1,-6.180647278E-1,9.555828552E0,2.456391907E0,9.885834539E0
1.015796163E1,-7.062313843E-1,9.418863373E0,2.680176544E0,9.818202295E0
1.016793962E1,-9.671388245E-1,9.460027771E0,2.887046356E0,9.937933366E0
1.017791663E1,-2.815644836E-1,9.054071960E0,3.156635742E0,9.592697578E0
1.018789463E1,6.385720825E-1,8.864266663E0,3.350183258E0,9.497722129E0
1.019787162E1,1.160686340E0,9.011111298E0,3.549418945E0,9.754265449E0
1.020784963E1,1.562600555E0,9.179511108E0,3.539988556E0,9.961760068E0
1.021782662E1,1.848955078E0,9.266929321E0,3.100801849E0,9.945329861E0
1.022780462E1,1.897903290E0,9.366622009E0,2.559377747E0,9.893738384E0
1.023778263E1,1.866917725E0,9.439071350E0,2.228415985E0,9.876603037E0
1.024775962E1,1.911674652E0,9.451944580E0,2.023791504E0,9.853399838E0
1.025773762E1,2.057770844E0,9.523196411E0,1.749861145E0,9.898873914E0
1.026771462E1,2.152972870E0,9.720037079E0,1.559606781E0,1.007704254E1
1.027769262E1,2.080373840E0,9.885592804E0,1.763183441E0,1.025483867E1
1.028766963E1,1.867516479E0,9.760303345E0,2.287992096E0,1.019735490E1
1.029764762E1,1.430575104E0,9.628876648E0,2.695744171E0,1.010093299E1
1.030762463E1,1.190773773E0,9.610764313E0,2.901266785E0,1.010950453E1
1.031760263E1,6.921606445E-1,9.593849487E0,2.866539001E0,1.003683616E1
1.032758062E1,4.581971741E-1,9.712103577E0,2.808759155E0,1.012047571E1
1.033755763E1,3.198847961E-1,9.812844086E0,2.731968842E0,1.019106908E1
1.034753563E1,-1.028361511E-1,9.877210236E0,2.536175995E0,1.019813934E1
1.035751262E1,-3.710783386E-1,9.877359924E0,2.270478516E0,1.014174595E1
1.036749063E1,-5.278024292E-1,9.671837311E0,2.231409760E0,9.939929672E0
1.037746762E1,-5.381309509E-1,9.514364777E0,2.426154785E0,9.833562379E0
1.038744562E1,-2.948867798E-1,9.381740570E0,2.596650238E0,9.738922260E0
1.039742362E1,5.792953491E-2,9.447004852E0,2.829266510E0,9.861744546E0
1.040740062E1,2.049238586E-1,9.331894226E0,3.280877380E0,9.893957753E0
1.041737862E1,7.723937988E-2,8.868757324E0,3.475921783E0,9.525904400E0
1.042735562E1,-1.541793823E-2,8.711284790E0,3.224744110E0,9.289009365E0
1.043732933E1,1.062789917E-1,8.867410126E0,2.886746979E0,9.326069144E0
1.044730633E1,2.522254944E-1,9.112300873E0,2.755020905E0,9.523013445E0
1.045728433E1,2.866539001E-1,9.268276520E0,2.683769073E0,9.653275949E0
1.046726133E1,3.023712158E-1,9.347162476E0,2.583926697E0,9.702450818E0
1.047723933E1,3.772155762E-1,9.406888275E0,2.475402374E0,9.734446853E0
1.048721733E1,5.040019226E-1,9.482780457E0,2.366279297E0,9.786542844E0
1.049719433E1,6.500981140E-1,9.469158783E0,2.308948517E0,9.768256695E0
1.050717233E1,7.708969116E-1,9.354796600E0,2.329306183E0,9.671203068E0
1.051714933E1,8.544232178E-1,9.191486206E0,2.397414551E0,9.537350483E0
1.052712733E1,9.529183960E-1,9.073830872E0,2.444566498E0,9.445547391E0
1.053710433E1,1.080153809E0,9.027577057E0,2.301763458E0,9.378805616E0
1.054708233E1,1.223405914E0,9.213789825E0,2.006128235E0,9.508690524E0
1.055706033E1,1.293759613E0,9.457033997E0,1.777104492E0,9.709140349E0
1.056703733E1,1.284478912E0,9.690698090E0,1.741628265E0,9.929389939E0
1.057701533E1,1.232237549E0,9.618548126E0,1.946103058E0,9.890510328E0
1.058699233E1,1.265767822E0,9.641151123E0,1.846859436E0,9.897719582E0
1.059697033E1,1.181493073E0,9.622440033E0,2.000140686E0,9.898880787E0
1.060694733E1,1.264270935E0,1.008976822E1,2.169139252E0,1.039745011E1
1.061692533E1,1.482217712E0,1.021266266E1,2.275418243E0,1.056754352E1
1.062690333E1,1.701811066E0,1.038345749E1,2.021845551E0,1.071448598E1
1.063688033E1,1.746418304E0,1.044213547E1,1.704056396E0,1.072343127E1
1.064685833E1,1.414408722E0,9.607770538E0,1.758393402E0,9.869232701E0
1.065683533E1,1.008901978E0,9.101223907E0,1.972597961E0,9.367032750E0
1.066681333E1,7.375163269E-1,9.151519318E0,2.102078705E0,9.418756342E0
1.067679033E1,6.084846497E-1,9.245523834E0,2.150128784E0,9.511730564E0
1.068676833E1,5.132826233E-1,9.229656830E0,2.321372681E0,9.530938850E0
1.069674633E1,6.297404480E-1,9.606423340E0,2.289638672E0,9.895574145E0
1.070672333E1,6.709048462E-1,1.000684067E1,2.223326569E0,1.027278708E1
1.071670133E1,5.257067871E-1,9.929601288E0,2.523602142E0,1.025874832E1
1.072667833E1,1.027912445E0,9.654922485E0,2.037263489E0,9.920916022E0
1.073665633E1,1.577868805E0,9.922416229E0,1.707648926E0,1.019117651E1
1.074663333E1,2.051932983E0,1.009156448E1,1.930086365E0,1.047737257E1
1.075661133E1,2.365381165E0,1.047177383E1,2.001637573E0,1.092060567E1
1.076658833E1,2.455344086E0,1.078567108E1,1.902393951E0,1.122401524E1
1.077656633E1,2.359393616E0,1.088850723E1,1.959275665E0,1.131216554E1
1.078654433E1,2.189197540E0,1.072669373E1,2.373015289E0,1.120204203E1
1.079652133E1,1.844763794E0,1.021939865E1,2.867137756E0,1.077310267E1
1.080649933E1,1.556613007E0,9.969867554E0,3.031346283E0,1.053614557E1
1.081647633E1,9.174421692E-1,1.000998413E1,2.756218414E0,1.042296610E1
1.082645433E1,3.158432007E-1,1.066442322E1,2.759661255E0,1.102022730E1
1.083643133E1,-1.338217163E-1,1.103340591E1,2.526745605E0,1.131982322E1
1.084640933E1,-7.619155884E-1,1.074136322E1,2.040856018E0,1.096004072E1
1.085638733E1,-1.439406738E0,9.759554901E0,1.595382385E0,9.993300185E0
1.086636433E1,-1.714235229E0,8.627010040E0,1.575773163E0,8.935712938E0
1.087634233E1,-2.016905823E0,7.761210480E0,1.760489044E0,8.209970699E0
1.088631933E1,-2.458786926E0,7.322772217E0,2.063309326E0,7.995365624E0
1.089629733E1,-2.461181946E0,6.665788422E0,2.202220459E0,7.439081046E0
1.090627433E1,-2.466421051E0,5.679938507E0,2.077529755E0,6.531543778E0
1.091625233E1,-2.297721863E0,5.003944244E0,2.060614929E0,5.879210631E0
1.092623033E1,-1.445094910E0,5.500761108E0,2.284100189E0,6.128930228E0
1.093620733E1,-7.640112305E-1,6.269861755E0,2.398612061E0,6.756346602E0
1.094618533E1,-3.396437073E-1,7.028633881E0,2.326162720E0,7.411348398E0
1.095616233E1,-5.298980713E-2,7.770042114E0,2.205962677E0,8.077291236E0
1.096614033E1,2.347119141E-1,8.548722839E0,2.279908905E0,8.850634807E0
1.097611733E1,6.789880371E-1,9.393266602E0,2.502795410E0,9.744663517E0
1.098609533E1,1.262774048E0,1.019335281E1,2.527793427E0,1.057774926E1
1.099607333E1,1.828298035E0,1.123428818E1,2.506537628E0,1.165481169E1
1.100605033E1,2.329156494E0,1.223720261E1,2.275717621E0,1.266305604E1
1.101602833E1,2.852617950E0,1.249781067E1,2.285597076E0,1.302139219E1
1.102600533E1,3.139870605E0,1.231863327E1,2.360591125E0,1.292980679E1
1.103598333E1,3.065026245E0,1.177182037E1,2.254162445E0,1.237139398E1
1.104596033E1,2.433938599E0,1.105975113E1,2.066303101E0,1.151137527E1
1.105593833E1,1.569785614E0,1.020742355E1,2.096091156E0,1.053799415E1
1.106591633E1,9.042695618E-1,9.351653137E0,1.978585510E0,9.601349929E0
1.107589333E1,4.941224670E-1,8.866661682E0,1.673220520E0,9.036676010E0
1.108587133E1,1.862127686E-1,8.762328644E0,1.475781097E0,8.887688581E0
1.109584833E1,-2.128573608E-1,8.944499817E0,1.435215454E0,9.061414273E0
1.110582633E1,-7.993377686E-1,9.269623718E0,1.692829742E0,9.456772033E0
1.111580333E1,-1.329535217E0,9.441166992E0,2.007325745E0,9.743338992E0
1.112578133E1,-1.652563477E0,9.422455902E0,2.073637848E0,9.788442940E0
1.113575933E1,-1.758393402E0,9.456135864E0,2.439926147E0,9.922887304E0
1.114573633E1,-1.529968414E0,9.553134155E0,3.033441925E0,1.013927736E1
1.115571433E1,-9.759704590E-1,9.547146606E0,3.108885040E0,1.008789834E1
1.116569133E1,-5.532495117E-1,9.392218781E0,2.763553162E0,9.805971891E0
1.117566933E1,-1.275347900E-1,9.506431274E0,2.660567322E0,9.872543703E0
1.118564633E1,9.280700684E-2,1.002360580E1,2.692451019E0,1.037933423E1
1.119562433E1,9.430389404E-2,1.068537964E1,2.919678497E0,1.107748860E1
1.120560133E1,-2.200424194E-2,1.108504852E1,2.972668304E0,1.147673916E1
1.121557933E1,-2.243833923E-1,1.102427490E1,2.691852264E0,1.135037681E1
1.122555733E1,-4.965174866E-1,1.058284286E1,2.474204865E0,1.087955801E1
1.123553433E1,-6.559359741E-1,9.851463776E0,2.420466614E0,1.016564062E1
1.124551233E1,-3.278182983E-1,9.096134491E0,2.641407166E0,9.477560832E0
1.125548933E1,6.391708374E-2,8.929231567E0,2.474204865E0,9.265902627E0
1.126546733E1,6.635700989E-1,9.645492096E0,2.324965210E0,9.943907998E0
1.127544433E1,9.018745422E-1,1.045875092E1,2.274819489E0,1.074121279E1
1.128542233E1,1.474583588E0,1.107621689E1,1.994153137E0,1.135049004E1
1.129540033E1,1.675465851E0,1.109672424E1,1.838925934E0,1.137216441E1
1.130537733E1,1.918410645E0,1.069256470E1,2.241588593E0,1.109215753E1
1.131535533E1,2.344275055E0,9.542506256E0,2.716401215E0,1.019479704E1
1.132533233E1,2.922522583E0,8.016579437E0,2.530338135E0,8.899960404E0
1.133531033E1,3.551215210E0,7.934400330E0,2.237397308E0,8.976178740E0
1.134528733E1,3.723057861E0,8.782237244E0,1.882784729E0,9.722845735E0
1.135526533E1,3.531905365E0,9.371561737E0,1.597178650E0,1.014157308E1
1.136524333E1,3.175795898E0,9.506431274E0,1.852248230E0,1.019258253E1
1.137522033E1,2.859803009E0,9.425599365E0,2.258353729E0,1.010547170E1
1.138519833E1,2.246678009E0,9.541308746E0,2.569107513E0,1.013333351E1
1.139517533E1,1.950743408E0,9.708810425E0,2.781665497E0,1.028611018E1
1.140515333E1,1.762135620E0,9.515412598E0,2.832409973E0,1.008319122E1
1.141513033E1,1.707948303E0,9.449250183E0,2.809058533E0,1.000481016E1
1.142510833E1,1.890418854E0,9.675280151E0,2.729723511E0,1.022917983E1
1.143508608E1,1.802551575E0,9.590855713E0,2.544259186E0,1.008498688E1
1.144506308E1,1.434167633E0,9.112749939E0,2.236349487E0,9.492118166E0
1.145504108E1,1.299896851E0,8.368048553E0,2.094743958E0,8.723641480E0
1.146501808E1,1.434916077E0,9.166787567E0,2.150877228E0,9.524455433E0
1.147499608E1,1.445693665E0,9.900112610E0,2.202669525E0,1.024470658E1
1.148497308E1,1.771266632E0,1.035022659E1,2.413131866E0,1.077440399E1
1.149495108E1,2.431543579E0,1.066532135E1,2.390528870E0,1.119714749E1
1.150492908E1,2.920127563E0,1.058299255E1,2.276166687E0,1.121194948E1
1.151490608E1,2.916834412E0,1.051204010E1,2.093546448E0,1.110827830E1
1.152488408E1,2.866988068E0,9.339378662E0,2.386337585E0,1.005675004E1
1.153486108E1,3.105741577E0,8.600964203E0,2.581232300E0,9.501840672E0
1.154483908E1,3.474873962E0,8.746461639E0,2.360441437E0,9.702938938E0
1.155481608E1,3.826193390E0,9.208101654E0,2.412682800E0,1.025913886E1
1.156479408E1,3.723057861E0,8.338559875E0,2.445764008E0,9.453808873E0
1.157477208E1,3.470083923E0,8.143964539E0,2.608775024E0,9.228832427E0
1.158474908E1,3.709885254E0,8.169561310E0,2.441572723E0,9.298723458E0
1.159472708E1,3.649111633E0,7.139403534E0,2.447111206E0,8.383045496E0
1.160470408E1,3.544030151E0,6.515800323E0,2.749482422E0,7.910465041E0
1.161468208E1,4.184697876E0,7.031477966E0,2.382445679E0,8.522289957E0
1.162465908E1,4.493954773E0,7.838898926E0,2.169438629E0,9.292493198E0
1.163463708E1,4.132456512E0,8.173902283E0,2.554587708E0,9.508721981E0
1.164461508E1,3.799099731E0,8.185877380E0,2.773432617E0,9.441063274E0
1.165459208E1,3.853137360E0,8.291707306E0,2.657124481E0,9.521522361E0
1.166457008E1,4.184697876E0,8.483159180E0,2.769989777E0,9.856395352E0
1.167454708E1,4.039050751E0,8.896898804E0,2.718496857E0,1.014194086E1
1.168452508E1,3.475023651E0,9.177714844E0,2.869981842E0,1.022462884E1
1.169450208E1,3.247496796E0,9.074878693E0,2.939138031E0,1.007661605E1
1.170448008E1,3.670217743E0,9.303303680E0,2.959346008E0,1.042975007E1
1.171445808E1,4.041745148E0,9.826615448E0,3.121159515E0,1.107428154E1
1.172443508E1,3.886368256E0,9.795629883E0,3.266956329E0,1.103318751E1
1.173441308E1,3.337759094E0,9.596843262E0,2.674188995E0,1.050672752E1
1.174439008E1,2.963387604E0,9.539362793E0,1.933229828E0,1.017440348E1
1.175436808E1,2.734363861E0,9.142687683E0,1.789977722E0,9.709248377E0
1.176434508E1,2.928959198E0,8.898395691E0,1.796414337E0,9.538729073E0
1.177432308E1,3.132535858E0,8.580307159E0,1.910327454E0,9.331870275E0
1.178430108E1,3.353925476E0,8.579708405E0,2.058070221E0,9.439060623E0
1.179427808E1,3.586392059E0,8.973090363E0,2.370171204E0,9.949686939E0
1.180425608E1,3.648512878E0,9.179660797E0,2.159409485E0,1.011142264E1
1.181423308E1,3.351380768E0,9.465715942E0,1.563049622E0,1.016241386E1
1.182421108E1,2.401905212E0,9.693691864E0,1.161883850E0,1.005419239E1
1.183418808E1,1.888772278E0,9.532776489E0,1.140178986E0,9.784748154E0
1.184416608E1,2.142045593E0,9.316925354E0,1.295256500E0,9.647338844E0
1.185414408E1,1.813029785E0,9.622889099E0,2.703527985E0,1.015854986E1
1.186412108E1,1.542242889E0,1.122096588E1,3.523073730E0,1.186172993E1
1.187409908E1,1.251397705E-1,2.025093796E1,4.594844971E0,2.076604797E1
1.188407608E1,3.544778595E0,1.055634796E1,-1.010249176E0,1.118134790E1
1.189405408E1,5.462740173E0,2.017354889E0,3.356619873E0,6.721469179E0
1.190403108E1,3.542832642E0,6.508914642E0,4.725972290E0,8.789337121E0
1.191400908E1,2.591261444E0,9.667646027E0,9.136999512E-1,1.005051557E1
1.192398708E1,3.747008057E0,1.001776794E1,1.763333130E0,1.083997637E1
1.193396408E1,3.523073730E0,8.195906525E0,2.956501923E0,9.398182584E0
1.194394208E1,4.258195038E0,7.284002838E0,2.471211090E0,8.791803375E0
1.195391908E1,5.092859344E0,6.236331482E0,2.684517517E0,8.487383634E0
1.196389708E1,5.510041809E0,4.702171783E0,3.021766205E0,7.848697422E0
1.197387408E1,5.734574890E0,3.251688080E0,3.395538940E0,7.415423739E0
1.198385208E1,6.021378479E0,3.580404510E0,3.473975830E0,7.819514263E0
1.199383008E1,6.072721710E0,3.541934509E0,3.730991364E0,7.958865848E0
1.200380708E1,6.270909576E0,3.889212341E0,3.936813354E0,8.363538661E0
1.201378508E1,6.135141907E0,5.567522278E0,3.591331787E0,9.029669680E0
1.202376208E1,5.660478973E0,7.082821198E0,3.488196259E0,9.714674028E0
1.203374008E1,5.465733948E0,9.256900177E0,3.669169922E0,1.135901652E1
1.204371708E1,4.587809601E0,1.083162552E1,3.716321869E0,1.233625375E1
1.205369508E1,3.549568634E0,1.059466827E1,3.560046844E0,1.172690781E1
1.206367308E1,3.040028229E0,1.002450394E1,2.769091644E0,1.083514279E1
1.207365008E1,3.926035767E0,7.168742523E0,1.757944336E0,8.360322631E0
1.208362808E1,5.213807831E0,6.613846436E0,2.519560547E0,8.790616709E0
1.209360508E1,5.137466583E0,7.811356201E0,3.188070374E0,9.877987715E0
1.210358308E1,5.080285492E0,1.053254745E1,3.526067505E0,1.221380402E1
1.211356008E1,4.170327759E0,1.106364304E1,3.651356964E0,1.237449953E1
1.212353808E1,3.554358673E0,1.091440338E1,4.588108978E0,1.236156991E1
1.213351608E1,3.682641907E0,1.127769791E1,3.913012848E0,1.249239733E1
1.214349308E1,4.061354370E0,1.060005707E1,3.512146454E0,1.188238115E1
1.215347108E1,5.460195465E0,1.123428818E1,4.067192230E0,1.313640050E1
1.216344808E1,6.436315613E0,1.211116470E1,3.129242706E0,1.406764476E1
1.217342608E1,6.907835083E0,1.209604614E1,2.815195770E0,1.421118732E1
1.218340308E1,6.759493561E0,1.219379288E1,2.272125092E0,1.412592972E1
1.219338108E1,5.811814270E0,1.123773102E1,1.675166473E0,1.276205180E1
1.220335908E1,3.954776001E0,9.093140717E0,1.473685455E0,1.002482968E1
1.221333608E1,3.173550568E0,8.744066620E0,2.385888519E0,9.603259253E0
1.222331408E1,3.101400604E0,9.137747955E0,3.405119019E0,1.023288615E1
1.223329108E1,2.952909393E0,8.742569733E0,3.680695953E0,9.934773380E0
1.224326908E1,2.600841522E0,8.429869995E0,3.848796387E0,9.624984072E0
1.225324608E1,2.542762299E0,8.341104584E0,3.644920349E0,9.451196228E0
1.226322408E1,3.422033844E0,8.444838867E0,3.262016602E0,9.678138841E0
1.227320208E1,3.874093781E0,9.323361969E0,2.996019745E0,1.053137291E1
1.228317908E1,4.218976593E0,8.542435913E0,2.782863007E0,9.925588211E0
1.229315708E1,4.734803925E0,8.053851929E0,2.731370087E0,9.733616062E0
1.230313408E1,5.634433136E0,8.409662018E0,2.808759155E0,1.050515969E1
1.231311208E1,6.179449768E0,8.829538879E0,2.894680481E0,1.115910083E1
1.232309008E1,6.385122070E0,9.128766632E0,3.038381653E0,1.154711770E1
1.233306708E1,6.421047363E0,9.186845856E0,3.136876831E0,1.163907137E1
1.234304508E1,5.590125275E0,8.966204681E0,2.755619659E0,1.091951312E1
1.235302208E1,4.412973175E0,8.703800354E0,2.515219574E0,1.007753950E1
1.236300008E1,4.216282196E0,8.952133942E0,2.707419891E0,1.025903797E1
1.237297708E1,4.427343292E0,9.384584656E0,3.052751770E0,1.081624201E1
1.238295508E1,4.458328857E0,9.801318054E0,3.313060455E0,1.126582893E1
1.239293308E1,4.329895935E0,9.997709656E0,3.047812042E0,1.131332645E1
1.240291008E1,4.346810760E0,1.002974304E1,3.001109161E0,1.133565902E1
1.241288808E1,4.622687073E0,9.893975372E0,3.309318237E0,1.141102851E1
1.242286508E1,4.464765472E0,1.000040405E1,2.867287445E0,1.132093411E1
1.243284308E1,3.912414093E0,9.838590546E0,-3.354524231E-1,1.059327033E1
1.244282400E1,2.933000793E0,9.464967499E0,3.507206726E-1,9.915195833E0
1.245280200E1,1.907333679E0,9.382489014E0,1.458117828E0,9.684788560E0
1.246278000E1,1.290765839E0,9.100026398E0,2.009571075E0,9.408237497E0
1.247275700E1,1.974693604E0,8.953181763E0,3.238515472E0,9.723521017E0
1.248273500E1,3.446433105E0,8.791218567E0,4.332440643E0,1.038910328E1
1.249271200E1,4.506079559E0,8.394244080E0,4.689148865E0,1.061867241E1
1.250269000E1,5.655389557E0,8.334218903E0,4.791985016E0,1.115373283E1
1.251266700E1,6.425238647E0,8.103249207E0,5.413791962E0,1.167285238E1
1.252264500E1,6.364465027E0,7.738906860E0,5.730233917E0,1.154264594E1
1.253262300E1,5.710475006E0,6.844217377E0,6.205944672E0,1.086124236E1
1.254260000E1,5.108876038E0,5.525459747E0,6.470145264E0,9.924419354E0
1.255257800E1,4.859195251E0,4.772675171E0,5.665568390E0,8.859394559E0
1.256255500E1,5.011129303E0,4.472998352E0,4.628973999E0,8.157605741E0
1.257253300E1,5.586532745E0,4.735103302E0,2.938688965E0,7.890908961E0
1.258251000E1,6.208938446E0,5.573659515E0,5.822891235E-1,8.363949883E0
1.259248800E1,6.671177216E0,5.620961151E0,3.008743286E-2,8.723572374E0
1.260246600E1,6.796017609E0,5.661526794E0,1.148860931E0,8.919564026E0
1.261244300E1,6.873855743E0,5.535488892E0,4.806953888E0,1.004979282E1
1.262242100E1,6.865323486E0,5.678291931E0,4.437222748E0,9.953120694E0
1.263239800E1,7.099885712E0,6.246959381E0,3.998634796E0,1.026751961E1
1.264237600E1,7.076534271E0,6.022426300E0,4.486769714E0,1.031882059E1
1.265235300E1,6.355932770E0,5.733527069E0,5.004393311E0,9.915400468E0
1.266233100E1,5.678142242E0,5.327571259E0,5.059329071E0,9.285533129E0
1.267230900E1,5.574258270E0,5.233417053E0,4.759502563E0,9.006324110E0
1.268228600E1,5.689069519E0,5.071603546E0,4.352947998E0,8.776948832E0
1.269226400E1,5.908064117E0,4.785997467E0,3.892954559E0,8.542018999E0
1.270224100E1,6.090834045E0,4.760700073E0,3.681444397E0,8.562450432E0
1.271221900E1,6.028264160E0,4.992867279E0,3.485202484E0,8.568274552E0
1.272219600E1,6.132896576E0,5.309608612E0,3.148402863E0,8.701540358E0
1.273217400E1,6.389762421E0,5.488935699E0,2.977308655E0,8.934307233E0
1.274215200E1,6.726262665E0,5.700745239E0,2.856360168E0,9.268219847E0
1.275212900E1,7.661517792E0,7.799381104E0,6.044430542E-1,1.094963707E1
1.276210700E1,8.057145081E0,1.253583160E1,-5.813011780E0,1.599549208E1
1.277208400E1,3.132086792E0,6.742578735E0,-2.083367615E0,7.720929756E0
1.278206200E1,1.521436157E0,4.240681458E0,3.038381653E0,5.434143012E0
1.279204000E1,3.892954559E0,5.715863800E0,2.434687042E0,7.331704793E0
1.280201700E1,6.497837677E0,5.326972504E0,1.570833435E0,8.547868051E0
1.281199500E1,8.251890106E0,4.712649994E0,2.847378845E0,9.920197910E0
1.282197200E1,9.473499756E0,4.699776764E0,4.248465271E0,1.139669059E1
1.283195000E1,1.017553986E1,4.559817810E0,5.057981873E0,1.224404878E1
1.284192700E1,9.145980835E0,4.423601074E0,3.918551331E0,1.088908887E1
1.285190500E1,7.593858490E0,5.049449615E0,1.629062347E0,9.263772035E0
1.286188300E1,6.428232422E0,4.935686188E0,1.251248016E0,8.200536069E0
1.287186000E1,5.228926392E0,4.108656006E0,1.514999542E0,6.820406806E0
1.288183800E1,5.586682434E0,4.534520416E0,2.732417908E0,7.696687836E0
1.289181500E1,6.458469543E0,5.752986603E0,5.514083405E0,1.025737781E1
1.290179300E1,6.433471527E0,7.749534760E0,7.806266785E0,1.274294495E1
1.291177000E1,5.757776642E0,8.735684052E0,7.304959259E0,1.276035256E1
1.292174800E1,4.921765137E0,8.035290527E0,5.632786560E0,1.097806679E1
1.293172600E1,5.244194641E0,6.958579559E0,5.360353088E0,1.023019023E1
1.294170300E1,6.692882080E0,6.134992218E0,5.714516602E0,1.072793084E1
1.295168100E1,7.728428650E0,5.634582825E0,5.605094147E0,1.108576625E1
1.296165800E1,7.978558502E0,5.519621887E0,5.067112885E0,1.094528458E1
1.297163600E1,7.770491180E0,5.554349670E0,4.922812958E0,1.074548374E1
1.298161400E1,7.708070984E0,5.726042633E0,5.380860443E0,1.100706962E1
1.299159100E1,6.760391693E0,4.477339325E0,5.960455170E0,1.006362207E1
1.300156900E1,5.741909637E0,3.978127441E0,5.841452637E0,9.105909792E0
1.301154600E1,4.990621948E0,4.302203522E0,5.707181854E0,8.717062997E0
1.302152400E1,4.925058289E0,4.445156250E0,5.541925507E0,8.644567748E0
1.303150100E1,5.240751801E0,4.387675781E0,5.506898346E0,8.777420327E0
1.304147900E1,5.233117676E0,4.142485657E0,5.422623596E0,8.599450837E0
1.305145700E1,4.786296844E0,3.979175262E0,5.505401459E0,8.309748400E0
1.306143400E1,4.531526642E0,4.186643829E0,5.953719177E0,8.573767684E0
1.307141200E1,4.550088043E0,4.433779907E0,6.432274017E0,9.040788378E0
1.308138900E1,4.509073334E0,4.371509399E0,6.656358032E0,9.151444641E0
1.309136700E1,4.580624542E0,4.174968109E0,6.532116394E0,9.004500236E0
1.310134400E1,4.724625092E0,4.165537720E0,6.222859497E0,8.854251356E0
1.311132200E1,4.683610382E0,4.033961334E0,6.157595215E0,8.724965850E0
1.312130000E1,4.716092834E0,3.797303467E0,6.189179535E0,8.658347912E0
1.313127700E1,4.552033997E0,3.876039734E0,6.212980042E0,8.622402132E0
1.314125500E1,4.441563721E0,3.781885529E0,6.924600220E0,9.054293713E0
1.315123200E1,4.359833679E0,3.843706970E0,7.456444244E0,9.454141619E0
1.316121000E1,4.371509399E0,3.762725372E0,7.740852814E0,9.653444926E0
1.317118700E1,4.323159943E0,3.686533813E0,8.204887848E0,9.980001405E0
1.318116500E1,4.293970642E0,3.870650940E0,8.717571716E0,1.046021889E1
1.319114300E1,4.138294373E0,4.014801178E0,8.936566315E0,1.063514581E1
1.320112000E1,3.988905029E0,4.016298065E0,9.003776550E0,1.063531878E1
1.321109800E1,4.017495575E0,3.962410126E0,8.653055878E0,1.033036014E1
1.322107500E1,4.046984253E0,3.878135376E0,8.131390686E0,9.876109053E0
1.323105300E1,3.904779968E0,3.695066071E0,8.030500488E0,9.663837641E0
1.324103100E1,3.696263580E0,3.473077698E0,8.041128387E0,9.507069943E0
1.325100800E1,3.528163147E0,3.281625824E0,8.024662628E0,9.360139611E0
1.326098600E1,3.396586761E0,3.235222321E0,8.312214661E0,9.544442239E0
1.327096300E1,3.413950653E0,3.369343414E0,8.530311127E0,9.786405981E0
1.328094100E1,3.451672211E0,3.447331238E0,8.436905365E0,9.745742960E0
1.329091800E1,3.530408478E0,3.327729950E0,8.282426605E0,9.598758311E0
1.330089600E1,3.578308868E0,3.339705048E0,8.087831268E0,9.453620406E0
1.331087400E1,3.544030151E0,3.437302094E0,8.041577454E0,9.436215520E0
1.332085100E1,3.559597778E0,3.418291626E0,8.240962830E0,9.605671363E0
1.333082900E1,3.587439880E0,3.352129211E0,8.513246613E0,9.827607187E0
1.334080600E1,3.566333771E0,3.352428589E0,8.496930542E0,9.805883063E0
1.335078400E1,3.547472992E0,3.376079407E0,8.244255981E0,9.589068436E0
1.336076100E1,3.535946960E0,3.503464508E0,8.089178467E0,9.497999407E0
1.337073900E1,3.573518829E0,3.801943817E0,8.345146179E0,9.842066773E0
1.338071700E1,3.831731873E0,3.883075104E0,8.657396851E0,1.023283742E1
1.339069400E1,4.072581024E0,3.805686035E0,8.690627747E0,1.032454227E1
1.340067200E1,3.981869659E0,3.530707855E0,7.099286957E0,8.872488898E0
1.341064900E1,3.412753143E0,3.466192017E0,5.753585358E0,7.534262776E0
1.342062700E1,2.842588806E0,3.343896332E0,8.020022278E0,9.142358073E0
1.343060500E1,2.825224915E0,3.216810608E0,1.045650558E1,1.129903869E1
1.344057825E1,3.055745544E0,3.058739319E0,1.073866882E1,1.157637573E1
1.345055625E1,3.121159515E0,3.065625000E0,1.020038818E1,1.109899151E1
1.346053325E1,2.883004761E0,3.198847961E0,9.845176849E0,1.074578298E1
1.347051125E1,2.692451019E0,3.220403137E0,9.825867004E0,1.068494040E1
1.348048825E1,2.789748688E0,3.183130646E0,9.777068481E0,1.065392353E1
1.349046625E1,2.866539001E0,3.043920135E0,9.454489288E0,1.033778813E1
1.350044425E1,2.855462036E0,2.984044647E0,9.065298615E0,9.961818351E0