"Time (s)","Linear Acceleration x (m/s^2)","Linear Acceleration y (m/s^2)","Linear Acceleration z (m/s^2)","Absolute acceleration (m/s^2)"
2.459362498E-2,-5.780137856E-1,5.181404901E-1,-8.973563987E-1,1.186515069E0
3.456162498E-2,-6.118183666E-1,5.320589098E-1,-5.087001604E-1,9.571751409E-1
4.453062499E-2,-6.850907761E-1,4.404362565E-1,-1.269711185E-1,8.242906844E-1
5.449962500E-2,-6.744149297E-1,3.651352286E-2,1.175518388E-1,6.855561025E-1
6.446762499E-2,-7.376112711E-1,-1.082310846E-1,5.397219783E-1,9.203717557E-1
7.443662500E-2,-8.113719231E-1,-1.471501520E-1,9.666967750E-1,1.270621981E0
8.440562501E-2,-7.185574611E-1,-6.537157863E-2,1.015874782E0,1.246033644E0
9.437462501E-2,-3.893934991E-1,1.862922907E-3,9.620622718E-1,1.037879850E0
1.043426250E-1,-2.023315687E-2,8.043634504E-2,6.538432556E-1,6.590829911E-1
1.143116250E-1,6.749499500E-2,2.487697899E-1,6.299205422E-2,2.653487924E-1
1.242806250E-1,-9.451951012E-3,3.447220141E-1,-5.711495930E-1,6.671839806E-1
1.342486250E-1,-2.204213921E-1,3.419863942E-1,-1.211141379E0,1.277655558E0
1.442176249E-1,-3.910537429E-1,2.754336780E-1,-1.795762957E0,1.858373305E0
1.541866249E-1,-4.743714496E-1,2.554639748E-1,-2.075090296E0,2.143895952E0
1.641546249E-1,-4.153652962E-1,4.636135961E-1,-2.011067378E0,2.105197828E0
1.741236249E-1,-2.772884879E-1,6.577328235E-1,-1.681188521E0,1.826443598E0
1.840926249E-1,3.072203849E-2,6.117554359E-1,-1.014385496E0,1.184975313E0
1.940606249E-1,4.097615805E-1,2.349997433E-1,-8.681419551E-2,4.802771457E-1
2.040296249E-1,7.739108589E-1,-1.449935527E-1,7.719880021E-1,1.102690629E0
2.139986249E-1,1.073065668E0,-7.579482526E-2,1.629829502E0,1.952833579E0
2.239666249E-1,1.098344496E0,-3.436035879E-1,2.509509768E0,2.760808457E0
2.339356249E-1,8.396192372E-1,-1.055710547E0,2.507610592E0,2.847384081E0
2.439046249E-1,4.426100686E-1,-1.124545431E0,2.542583959E0,2.815180152E0
2.538726249E-1,-1.371421308E-1,-5.555781654E-1,2.784391469E0,2.842588770E0
2.638416250E-1,-3.553154878E-1,-3.010297184E-1,2.255876264E0,2.303442143E0
2.738106250E-1,-1.698205380E-1,-3.373985957E-1,1.339618156E0,1.391852590E0
2.837786250E-1,4.134741604E-2,-1.822365888E-1,3.203344470E-1,3.708556877E-1
2.937476250E-1,-9.423767433E-2,1.180586462E-1,-5.888181245E-1,6.078859819E-1
3.037166250E-1,-6.366896445E-1,-7.282144301E-2,-1.939297484E0,2.042437611E0
3.136846250E-1,-7.600175822E-1,-5.035191619E-1,-3.299355167E0,3.422996171E0
3.236536250E-1,-1.143942107E0,-2.741927527E-2,-2.009606743E0,2.312547216E0
3.336226250E-1,-1.006685590E0,8.948714782E-1,-9.226228023E-1,1.632618656E0
3.435906250E-1,8.491874747E-1,7.902923452E-1,-1.554509763E0,1.939634492E0
3.535596250E-1,6.949703778E-1,1.393624648E-1,1.388742954E-1,7.222823496E-1
3.635286250E-1,5.128569094E-1,-1.998584157E-1,9.589521378E-1,1.105692000E0
3.734966250E-1,3.476523462E-1,-2.308873965E-1,7.977835786E-1,9.003498109E-1
3.834656250E-1,-2.194209883E-1,-1.459144892E-1,6.291487098E-1,6.821031500E-1
3.934346250E-1,-1.079317437E-1,-4.669191002E-1,-1.497764289E-1,5.020913125E-1
4.034026250E-1,1.920643331E-1,-8.044023344E-1,-1.134864451E0,1.404232583E0
4.133716250E-1,3.041113472E-1,-5.997492749E-1,-2.186757497E0,2.287813641E0
4.233406250E-1,-1.220606267E-2,-2.129574213E-1,-3.352680604E0,3.359459344E0
4.333096250E-1,-2.044525000E-1,-9.987263605E-3,-4.109334283E0,4.114429343E0
4.432776250E-1,-6.166821536E-1,-2.152508455E-1,-3.724205670E0,3.781049811E0
4.532466250E-1,-6.964432915E-1,-4.508659351E-1,-2.779562838E0,2.900738341E0
4.632156249E-1,-3.346884844E-1,-3.010522667E-1,-2.026032157E0,2.075440953E0
4.731836249E-1,-4.024676540E-1,3.744678234E-1,-1.260107133E0,1.374800476E0
4.831526249E-1,9.133650519E-1,-5.257068967E-1,-1.161892036E0,1.568628880E0
4.931216249E-1,5.914651591E-1,-7.828351718E-1,-9.227982187E-1,1.346929283E0
5.030896249E-1,7.733907491E-1,-9.190659410E-1,1.274938595E0,1.751651757E0
5.130586249E-1,4.610146549E-1,-1.001094190E0,2.253773605E0,2.508828323E0
5.230276249E-1,1.238325670E0,-9.136150935E-1,2.286522106E0,2.756143382E0
5.329956249E-1,1.647705902E0,-9.139994748E-1,2.145859147E0,2.855703286E0
5.429646249E-1,1.413581341E0,-6.318330934E-1,1.317504571E0,2.033038012E0
5.529336249E-1,1.802340490E0,-7.065099310E-1,-1.489572340E-1,1.941591044E0
5.629016249E-1,1.050950767E0,-6.029066983E-1,-7.313293880E-1,1.415216123E0
5.728706250E-1,3.635614505E-1,-4.192052358E-1,-1.738183671E0,1.824607473E0
5.828396250E-1,1.154284224E-1,-2.841156969E-1,-2.888350285E0,2.904584793E0
5.928076250E-1,-2.216375399E-1,-4.439798885E-1,-3.407477201E0,3.443420133E0
6.027766250E-1,-3.637944621E-1,-6.779438706E-1,-3.552623804E0,3.634981458E0
6.127456250E-1,-3.377576879E-1,-9.446723601E-1,-3.516219624E0,3.656540246E0
6.227136250E-1,-2.981068414E-1,-7.379124027E-1,-3.126872245E0,3.226563565E0
6.326826250E-1,-5.770049948E-1,-9.251683876E-2,-2.663203247E0,2.726562976E0
6.426516250E-1,-7.692833725E-1,-4.535219597E-1,-2.795110584E0,2.934300982E0
6.526196250E-1,-8.673110658E-1,-1.135721653E0,-2.834238982E0,3.174114485E0
6.625886250E-1,-1.232429045E0,-1.401240646E0,-2.879623316E0,3.431411829E0
6.725576250E-1,-1.276190192E0,-1.354912279E0,-3.238329531E0,3.735134113E0
6.825256250E-1,-1.170877745E0,-1.366483919E0,-3.667364302E0,4.085069634E0
6.924946250E-1,-1.056695364E0,-1.529616558E0,-3.453859069E0,3.922432202E0
7.024636250E-1,-6.328836188E-1,-1.337823938E0,-2.210609459E0,2.660283584E0
7.124316250E-1,-1.915550771E-1,-1.046963843E0,-8.579198527E-1,1.367060024E0
7.224006250E-1,7.381057262E-2,-1.634289758E0,1.780097097E-1,1.645611884E0
7.323696250E-1,4.519429922E-2,-2.198959174E0,5.821043515E-1,2.275150424E0
7.423376250E-1,1.268989930E0,-1.517317963E0,1.254866273E0,2.342494100E0
7.523071250E-1,8.943225709E-1,-1.563380866E0,1.134507186E0,2.128633165E0
7.622761250E-1,7.113471133E-1,-1.372945239E0,7.532932842E-1,1.720012824E0
7.722441250E-1,1.123402154E0,-8.985061075E-1,6.808439434E-1,1.591506865E0
7.822131249E-1,6.627696151E-1,-2.620193175E0,6.906146407E-2,2.703598587E0
7.921821249E-1,1.594080210E0,-1.250170375E0,8.858291978E-1,2.211042978E0
8.021511249E-1,2.255566946E0,6.389223307E-1,1.010499437E0,2.552824535E0
8.121191249E-1,1.567377146E0,5.004474002E-1,-6.702487886E-2,1.646697013E0
8.220881249E-1,8.103252715E-1,7.207947519E-1,2.130889106E-1,1.105250652E0
8.320571249E-1,7.238198090E-1,3.684818825E-1,4.878641921E-1,9.474732099E-1
8.420251249E-1,7.886268389E-1,5.403207332E-2,5.359826839E-1,9.550545500E-1
8.519941249E-1,4.886447954E-1,1.738415220E-1,9.248342192E-1,1.060336241E0
8.619631249E-1,7.572313839E-1,2.377466190E-1,1.276621424E0,1.503224895E0
8.719311249E-1,2.089509530E0,4.276641834E-1,1.896167251E0,2.853838989E0
8.819001250E-1,2.634816184E0,6.520233098E-1,2.538207318E0,3.716165646E0
8.918691250E-1,1.949799668E0,5.244841343E-1,2.358782582E0,3.104940840E0
9.018371250E-1,7.611151046E-1,5.496362248E-1,1.602617730E0,1.857358277E0
9.118061250E-1,3.023799866E-1,5.141155592E-1,8.735857129E-1,1.057780914E0
9.217751250E-1,1.231201422E-1,5.246732917E-1,-3.296046227E-2,5.399324259E-1
9.317431250E-1,6.807328463E-2,4.071597522E-1,-9.322420567E-1,1.019552985E0
9.417121250E-1,3.543108630E-1,2.427521279E-1,-1.507034173E0,1.567040772E0
9.516811250E-1,8.102960354E-1,-2.617783830E-1,-1.244797660E0,1.508187257E0
9.616491250E-1,1.568348953E0,-4.998810974E-1,1.697075406E-1,1.654811228E0
9.716181250E-1,2.111401505E0,-6.871905112E-1,1.417963829E0,2.634552815E0
9.815871250E-1,2.078468817E0,-9.930794120E-1,1.864277122E0,2.963404888E0
9.915551250E-1,1.933599957E0,-1.355119709E0,1.900961384E0,3.031305396E0
1.001524125E0,1.347145277E0,-1.849021152E0,1.916042522E0,2.984107666E0
1.011493125E0,6.659510851E-1,-2.049295889E0,1.942327365E0,2.900989500E0
1.021461125E0,-1.555792058E-1,-1.642423820E0,1.496618820E0,2.227471388E0
1.031430125E0,-4.283015299E-1,-1.540063047E0,1.063990935E0,1.920237772E0
1.041399125E0,-4.253141874E-1,-1.396005780E0,5.820873946E-1,1.571162000E0
1.051367125E0,-7.581973439E-1,-1.168150896E0,6.433106661E-2,1.394122740E0
1.061336125E0,-1.191354402E0,-1.138223092E0,-5.107507789E-1,1.725034340E0
1.071305125E0,-1.456157257E0,-1.231483843E0,-7.420853412E-1,2.046371683E0
1.081273125E0,-1.440751598E0,-1.373976395E0,-6.105838366E-1,2.082399799E0
1.091242125E0,-1.556668555E0,-1.361002008E0,-2.145156129E-1,2.078836310E0
1.101211125E0,-1.746987239E0,-1.353895302E0,2.040678263E-3,2.210203852E0
1.111179125E0,-1.585177240E0,-1.503786922E0,2.048389278E-2,2.185081595E0
1.121148125E0,-1.191952572E0,-1.316547382E0,-1.660028178E-2,1.776041529E0
1.131117125E0,-7.330864763E-1,-1.087029549E0,-1.200780552E-2,1.311180083E0
1.141085125E0,-5.283128911E-1,-9.584469384E-1,5.114680130E-2,1.095605330E0
1.151054125E0,-2.448527402E-1,-7.061384135E-1,-1.028161975E-1,7.544239484E-1
1.161023125E0,3.268593550E-4,-5.125365186E-1,-3.733844805E-1,6.341212502E-1
1.170991125E0,1.781845415E-1,-2.966982472E-1,-5.327152232E-1,6.352677308E-1
1.180960125E0,6.807427865E-1,-5.026032686E-2,-5.896939643E-1,9.020398070E-1
1.190929125E0,1.472966248E0,2.985073757E-1,-4.502320969E-1,1.568899347E0
1.200898125E0,2.337465388E0,6.787132180E-1,-1.309343612E-1,2.437527411E0
1.210866125E0,3.175140426E0,1.035409745E0,2.737409091E-1,3.350899006E0
1.220835125E0,3.883870325E0,1.355762903E0,5.387320447E-1,4.148828023E0
1.230803125E0,4.529108818E0,1.634285080E0,8.027771739E-1,4.881410206E0
1.240772125E0,5.144748706E0,1.984016404E0,9.898706062E-1,5.602196369E0
1.250741125E0,5.418948036E0,2.358804801E0,8.869466738E-1,5.976255710E0
1.260710125E0,5.601482906E0,2.626700249E0,8.479914998E-1,6.244618045E0
1.270678125E0,5.940656497E0,2.720394278E0,1.133856976E0,6.631559115E0
1.280647125E0,6.181303920E0,2.978226668E0,1.523897835E0,7.028557238E0
1.290616125E0,6.551787012E0,3.465274588E0,1.773261848E0,7.620925049E0
1.300584125E0,6.876142005E0,4.168950740E0,1.781736803E0,8.236265244E0
1.310553125E0,7.053053607E0,5.244309831E0,1.603072789E0,8.934102818E0
1.320522125E0,7.067468748E0,6.141168632E0,1.362265738E0,9.461439352E0
1.330490125E0,6.986185434E0,6.732446680E0,1.265320072E0,9.784357930E0
1.340459125E0,7.039444213E0,7.055381969E0,1.455267895E0,1.007223879E1
1.350428125E0,7.262631850E0,6.891458201E0,1.869575869E0,1.018495613E1
1.360396125E0,7.582357017E0,6.535719448E0,2.255729499E0,1.026138793E1
1.370365125E0,8.040013323E0,6.286056789E0,2.501901956E0,1.050789406E1
1.380334125E0,8.140805288E0,6.031987667E0,2.303921081E0,1.039065149E1
1.390302125E0,8.769060543E0,6.196235370E0,1.772796410E0,1.088267259E1
1.400271125E0,9.916215842E0,6.633025888E0,1.206889942E0,1.199103633E1
1.410240125E0,1.081983987E1,6.681119236E0,8.285785977E-1,1.274334460E1
1.420208125E0,1.128318610E1,6.612861764E0,7.892736141E-1,1.310202970E1
1.430177125E0,1.201545982E1,6.743628311E0,1.174951061E0,1.382853237E1
1.440146125E0,1.287496310E1,6.573820490E0,2.043452182E0,1.459984546E1
1.450114125E0,1.302110373E1,6.206511852E0,2.755478157E0,1.468545510E1
1.460083125E0,1.300725050E1,6.142584828E0,3.060928516E0,1.470677386E1
1.470052125E0,1.271552590E1,5.826738703E0,2.867108520E0,1.427780775E1
1.480020125E0,1.224965367E1,5.202614506E0,2.630381656E0,1.356613874E1
1.489989125E0,1.196460541E1,4.497225705E0,2.435351286E0,1.301183145E1
1.499958125E0,1.187279711E1,3.936152619E0,2.254569557E0,1.270982661E1
1.509926125E0,1.168777483E1,3.187958692E0,2.161633766E0,1.230608881E1
1.519895125E0,1.111496873E1,2.227691807E0,1.894785554E0,1.149327424E1
1.529864125E0,1.064741951E1,1.263773922E0,1.435519509E0,1.081782710E1
1.539832125E0,1.009034125E1,4.732838675E-1,1.041393785E0,1.015497342E1
1.549801125E0,9.410506532E0,-5.076897615E-1,7.903622925E-1,9.457275223E0
1.559770125E0,8.524785508E0,-1.363349081E0,6.686905056E-1,8.658974285E0
1.569738125E0,7.854816801E0,-1.980992224E0,4.624288040E-1,8.113958194E0
1.579707125E0,7.134723423E0,-2.388795755E0,4.398807710E-1,7.536850706E0
1.589676125E0,6.318778977E0,-2.843125581E0,4.701827967E-1,6.944883202E0
1.599644125E0,5.663779142E0,-3.450410966E0,3.506826657E-1,6.641288153E0
1.609613125E0,5.016644397E0,-4.002075298E0,1.750258756E-1,6.419810102E0
1.619582125E0,4.469299403E0,-4.160035490E0,5.379496872E-2,6.106015586E0
1.629550125E0,4.391436710E0,-4.212362223E0,-9.184217971E-2,6.085815218E0
1.639519125E0,4.487044533E0,-4.321121896E0,-4.095845926E-1,6.242869742E0
1.649488125E0,4.494117326E0,-4.439134203E0,-6.310595798E-1,6.348325700E0
1.659456125E0,4.200615166E0,-4.688795985E0,-7.308715510E-1,6.337519135E0
1.669425125E0,3.608960558E0,-5.234642630E0,-8.881534660E-1,6.419882892E0
1.679394125E0,2.814318688E0,-5.782975802E0,-1.024735068E0,6.512547947E0
1.689362125E0,1.949132500E0,-6.320649501E0,-8.960928154E-1,6.674781641E0
1.699331125E0,1.076446089E0,-6.892879075E0,-8.048598790E-1,7.022700161E0
1.709300125E0,1.571538609E-1,-7.512709077E0,-8.114695716E-1,7.558040611E0
1.719268125E0,-1.077935960E0,-8.115848202E0,-8.755971551E-1,8.233808860E0
1.729237125E0,-2.221004639E0,-8.652671716E0,-1.128937202E0,9.004226154E0
1.739206125E0,-3.171826224E0,-9.063659055E0,-1.104520326E0,9.665938248E0
1.749174125E0,-4.009342802E0,-9.413669876E0,-5.804250312E-1,1.024836101E1
1.759143125E0,-4.664972382E0,-9.556918473E0,1.256310097E-1,1.063543329E1
1.769112125E0,-5.006682495E0,-9.761848179E0,5.253561004E-1,1.098346705E1
1.779081125E0,-5.232990206E0,-9.943585489E0,7.889729941E-1,1.126417140E1
1.789049125E0,-5.433981813E0,-1.003274617E1,9.258320466E-1,1.144732803E1
1.799018125E0,-5.719525326E0,-1.009899513E1,9.446176887E-1,1.164452554E1
1.808987125E0,-6.342902250E0,-1.023521537E1,9.553601933E-1,1.207910409E1
1.818955125E0,-7.171103044E0,-1.046431746E1,1.187570668E0,1.274115313E1
1.828924125E0,-7.797977187E0,-1.068153217E1,1.540480392E0,1.331452806E1
1.838893125E0,-8.593697868E0,-1.079305728E1,1.771743911E0,1.390973778E1
1.848861125E0,-9.209958730E0,-1.089650272E1,1.988584395E0,1.440526220E1
1.858830125E0,-9.720039418E0,-1.107537489E1,2.046181954E0,1.487716222E1
1.868799125E0,-1.006927490E1,-1.112454296E1,1.892951868E0,1.512378986E1
1.878767125E0,-1.000996542E1,-1.101210334E1,1.715411835E0,1.498026920E1
1.888736125E0,-9.593560050E0,-1.076187759E1,1.649486964E0,1.451120984E1
1.898705125E0,-9.197334006E0,-1.043214375E1,1.655112863E0,1.400571221E1
1.908673125E0,-8.930574673E0,-1.026995368E1,1.635768811E0,1.370776612E1
1.918642125E0,-8.952735620E0,-1.038718100E1,1.500167203E0,1.379476371E1
1.928611125E0,-8.953058971E0,-1.059160901E1,1.305105550E0,1.392992272E1
1.938579125E0,-8.724786596E0,-1.109206752E1,1.098891796E0,1.415497885E1
1.948548125E0,-8.547659816E0,-1.171743425E1,7.900418651E-1,1.452531996E1
1.958517125E0,-8.454670376E0,-1.205439876E1,6.264556284E-1,1.473711055E1
1.968485125E0,-8.207409752E0,-1.225556052E1,8.130660076E-1,1.477231921E1
1.978454125E0,-7.806482547E0,-1.265424942E1,1.201435879E0,1.491692482E1
1.988423125E0,-7.260471888E0,-1.290368813E1,1.453869534E0,1.487727650E1
1.998391125E0,-6.216888320E0,-1.303563990E1,1.534286145E0,1.452348588E1
2.008360125E0,-5.124516170E0,-1.317113626E1,1.055099805E0,1.417225219E1
2.018329125E0,-4.130966057E0,-1.338865619E1,2.388062806E-1,1.401349434E1
2.028297125E0,-2.824233227E0,-1.384789417E1,-3.956601794E-1,1.413849402E1
2.038266125E0,-1.434068815E0,-1.421794457E1,-9.031258464E-1,1.431859412E1
2.048235125E0,-2.532312155E-2,-1.398249825E1,-1.361181372E0,1.404861962E1
2.058203125E0,1.262593369E0,-1.381339794E1,-1.596975167E0,1.396260843E1
2.068172125E0,2.063599933E0,-1.402414328E1,-1.478889477E0,1.425209296E1
2.078141125E0,2.360396998E0,-1.420429717E1,-1.117545583E0,1.444238347E1
2.088109125E0,3.117434254E0,-1.444912710E1,-5.368727032E-1,1.479134553E1
2.098078125E0,4.083421177E0,-1.458058771E1,-4.507143460E-2,1.514166101E1
2.108047125E0,5.073323797E0,-1.451718636E1,3.417288244E-1,1.538194047E1
2.118015125E0,5.969732947E0,-1.434429354E1,6.691740704E-1,1.555134279E1
2.127984125E0,6.463336766E0,-1.401492924E1,9.265427025E-1,1.546128860E1
2.137953125E0,6.706706652E0,-1.360300927E1,1.142236036E0,1.520942072E1
2.147921125E0,6.981256231E0,-1.299370952E1,1.274608812E0,1.480537245E1
2.157890125E0,7.426624614E0,-1.261097534E1,1.228481297E0,1.468674976E1
2.167859125E0,7.801032357E0,-1.242317213E1,1.093980135E0,1.471013610E1
2.177827125E0,8.491938774E0,-1.201693565E1,8.403138864E-1,1.473858521E1
2.187796125E0,8.982364631E0,-1.133621918E1,6.258708338E-1,1.447703195E1
2.197765125E0,9.361426758E0,-1.066604524E1,6.483885343E-1,1.420638024E1
2.207733125E0,9.620888767E0,-1.008022556E1,8.287703864E-1,1.395920157E1
2.217702125E0,1.067319638E1,-9.268362474E0,8.815053280E-1,1.416321699E1
2.227671125E0,1.157088665E1,-8.317935576E0,8.321910806E-1,1.427466330E1
2.237639125E0,1.179308085E1,-7.675682672E0,1.031708604E0,1.410876618E1
2.247608125E0,1.227966743E1,-7.240776712E0,1.413929543E0,1.432544157E1
2.257577125E0,1.282699955E1,-6.463451956E0,1.957430284E0,1.449619474E1
2.267545125E0,1.301280419E1,-5.517942567E0,2.827590698E0,1.441443832E1
2.277514125E0,1.299609869E1,-4.601773921E0,3.694696819E0,1.427325082E1
2.287483125E0,1.283746256E1,-3.669789727E0,4.396234936E0,1.405683760E1
2.297451125E0,1.253177598E1,-2.964610841E0,4.977087398E0,1.380600324E1
2.307420125E0,1.237676980E1,-2.142924430E0,5.484214658E0,1.370595367E1
2.317389125E0,1.229455444E1,-1.049050130E0,6.086682522E0,1.375878916E1
2.327357125E0,1.209763775E1,-2.211335099E-1,6.461983720E0,1.371710512E1
2.337326125E0,1.176259464E1,1.786277604E-1,6.377527707E0,1.338145732E1
2.347295125E0,1.143522540E1,5.496932352E-1,6.359326494E0,1.309609011E1
2.357263125E0,1.124016112E1,1.046401341E0,6.637264534E0,1.309539836E1
2.367232125E0,1.093719232E1,1.776527957E0,6.754970155E0,1.297720498E1
2.377201125E0,1.087232448E1,2.383284169E0,6.701063504E0,1.299198734E1
2.387169125E0,1.107703667E1,2.998898914E0,6.651924673E0,1.326432199E1
2.397138125E0,1.084303811E1,3.638185526E0,6.454666514E0,1.313280584E1
2.407107125E0,1.033053317E1,3.724887455E0,6.139007501E0,1.258102203E1
2.417075125E0,9.724473946E0,3.820657246E0,6.034824151E0,1.206573321E1
2.427044125E0,9.630814415E0,4.309403198E0,6.503673198E0,1.239440629E1
2.437013125E0,1.001522324E1,4.847560462E0,7.234392722E0,1.327177369E1
2.446981125E0,1.024988954E1,5.234315770E0,7.883269937E0,1.395006244E1
2.456950125E0,1.045052388E1,5.657466488E0,8.386121128E0,1.454466927E1
2.466919125E0,1.081231918E1,6.379771283E0,8.693229173E0,1.527023121E1
2.476887125E0,1.109344162E1,7.074948506E0,8.796233139E0,1.582697257E1
2.486856125E0,1.113919959E1,7.255305288E0,8.862472737E0,1.597700364E1
2.496825125E0,1.095024097E1,7.289299246E0,9.222865289E0,1.606558137E1
2.506793125E0,1.058037300E1,7.417439808E0,9.694971820E0,1.615410736E1
2.516762125E0,1.041664044E1,7.461780413E0,1.004957212E1,1.628430117E1
2.526731125E0,1.033444379E1,7.388020127E0,1.027862627E1,1.634116666E1
2.536699125E0,1.024650283E1,7.283126341E0,1.061855298E1,1.645565000E1
2.546668125E0,1.037298980E1,7.349636664E0,1.094671393E1,1.677637095E1
2.556637125E0,1.088015624E1,7.488153695E0,1.101019481E1,1.719519221E1
2.566605125E0,1.150968034E1,7.716003901E0,1.079827066E1,1.756735914E1
2.576574125E0,1.201393486E1,7.822726697E0,1.030899320E1,1.765800172E1
2.586543125E0,1.237464141E1,7.782807755E0,9.628300697E0,1.750451430E1
2.596511125E0,1.249943503E1,7.514682512E0,8.898393352E0,1.708472222E1
2.606480125E0,1.255993383E1,6.882003254E0,8.182861971E0,1.649463963E1
2.616449125E0,1.267386449E1,6.027895786E0,7.424581597E0,1.587724096E1
2.626417125E0,1.292033749E1,5.184882824E0,6.763691862E0,1.547790872E1
2.636386125E0,1.300411523E1,4.604116316E0,6.269281712E0,1.515284769E1
2.646355125E0,1.285606489E1,4.099774085E0,5.744115207E0,1.466565415E1
2.656323125E0,1.279899022E1,3.765031514E0,5.060236559E0,1.426869325E1
2.666292125E0,1.318248571E1,3.380160763E0,4.367088904E0,1.429247640E1
2.676261125E0,1.372683459E1,3.161653823E0,3.893439001E0,1.461440762E1
2.686229125E0,1.422229373E1,2.909136552E0,3.477138297E0,1.492739780E1
2.696198125E0,1.443901376E1,2.034987752E0,2.877089425E0,1.486283745E1
2.706167125E0,1.448567220E1,4.788746828E-1,2.220188953E0,1.466264843E1
2.716135125E0,1.426824466E1,-1.200321107E0,1.737220634E0,1.442364420E1
2.726104125E0,1.398247953E1,-2.556001564E0,1.342112578E0,1.427739977E1
2.736073125E0,1.375815578E1,-3.882424893E0,1.263664286E0,1.435119929E1
2.746041125E0,1.346372158E1,-5.283080964E0,1.484478246E0,1.453913405E1
2.756009750E0,1.331775519E1,-6.518037468E0,1.761391854E0,1.493150753E1
2.765978750E0,1.335524871E1,-7.568346503E0,2.038064557E0,1.548535579E1
2.775946750E0,1.334442668E1,-8.726207469E0,2.232181592E0,1.609978431E1
2.785915750E0,1.321641125E1,-9.669226529E0,2.398211965E0,1.655049512E1
2.795884750E0,1.296839225E1,-1.035601066E1,2.497019531E0,1.678276678E1
2.805852750E0,1.266708288E1,-1.106025399E1,2.575651717E0,1.701229523E1
2.815821750E0,1.199196337E1,-1.183276006E1,2.645704869E0,1.705347912E1
2.825790750E0,1.101327278E1,-1.253344126E1,2.855681891E0,1.692732248E1
2.835758750E0,9.990047464E0,-1.307398828E1,3.290112473E0,1.677960244E1
2.845727750E0,9.126556385E0,-1.333070678E1,3.701425502E0,1.657414629E1
2.855696750E0,8.331575376E0,-1.335680875E1,3.725828272E0,1.617718407E1
2.865664750E0,7.546642808E0,-1.327550321E1,3.353660012E0,1.563450795E1
2.875633750E0,6.980452239E0,-1.344881936E1,2.669352179E0,1.538580179E1
2.885602750E0,6.261690856E0,-1.347524176E1,2.147147874E0,1.501336594E1
2.895570750E0,5.270976643E0,-1.345667685E1,1.859059067E0,1.457125414E1
2.905539750E0,4.260672503E0,-1.353421561E1,1.802376304E0,1.430303753E1
2.915508750E0,3.181784617E0,-1.341725376E1,1.970505828E0,1.392944166E1
2.925476750E0,2.192477828E0,-1.332519285E1,2.019338264E0,1.365450294E1
2.935445750E0,1.198878599E0,-1.315727018E1,2.002176687E0,1.336262623E1
2.945414750E0,1.342696130E-2,-1.281759840E1,1.950190408E0,1.296511672E1
2.955382750E0,-1.203202615E0,-1.252321565E1,1.891748511E0,1.272231658E1
2.965351750E0,-2.197019361E0,-1.228308337E1,1.979544600E0,1.263406617E1
2.975320750E0,-3.144108667E0,-1.195986566E1,2.315709068E0,1.258118891E1
2.985288750E0,-3.960422072E0,-1.154938878E1,2.640449684E0,1.249180927E1
2.995257750E0,-4.522728921E0,-1.122626463E1,2.828274822E0,1.242912840E1
3.005226750E0,-4.871442829E0,-1.088960183E1,2.823959285E0,1.225924669E1
3.015194750E0,-4.932570207E0,-1.042187370E1,2.716324031E0,1.184584807E1
3.025163750E0,-4.794535571E0,-9.821562284E0,2.605042162E0,1.123551965E1
3.035132750E0,-4.338037598E0,-9.213209782E0,2.484126128E0,1.048201733E1
3.045100750E0,-3.870163282E0,-8.653892030E0,2.375910977E0,9.773073419E0
3.055069750E0,-3.957901338E0,-8.379307367E0,2.335966161E0,9.556909169E0
3.065038750E0,-4.520390035E0,-8.392172996E0,2.363655066E0,9.820863451E0
3.075006750E0,-5.116852224E0,-8.663593730E0,2.340041671E0,1.033033533E1
3.084975750E0,-5.725714020E0,-8.987080995E0,2.303141647E0,1.090210472E1
3.094944750E0,-6.335749351E0,-9.044142219E0,2.292375461E0,1.127799688E1
3.104912750E0,-6.709787550E0,-9.078902746E0,2.240964110E0,1.150954579E1
3.114881750E0,-6.766776268E0,-9.221249118E0,2.413869785E0,1.168963061E1
3.124850750E0,-6.895572887E0,-9.216952000E0,2.905109867E0,1.187184876E1
3.134818750E0,-6.875115818E0,-9.182752805E0,3.517111909E0,1.199834333E1
3.144787750E0,-6.621879925E0,-9.295516359E0,4.061274556E0,1.211403604E1
3.154756750E0,-6.455672235E0,-9.323791739E0,4.494259413E0,1.219865419E1
3.164724750E0,-6.270901975E0,-9.276050978E0,4.748321518E0,1.216206769E1
3.174693750E0,-6.010206204E0,-9.241546558E0,5.047384379E0,1.212455568E1
3.184662750E0,-5.759550102E0,-9.379204048E0,5.392228600E0,1.225634592E1
3.194630750E0,-5.665782398E0,-9.579673498E0,5.628025757E0,1.247180454E1
3.204599750E0,-5.674891191E0,-9.581575012E0,5.802997838E0,1.255729882E1
3.214568750E0,-5.563387712E0,-9.679346305E0,5.823926193E0,1.259202700E1
3.224536750E0,-5.217263535E0,-1.010675321E1,5.574367028E0,1.266648598E1
3.234505750E0,-4.767751815E0,-1.062060652E1,5.197913929E0,1.274939408E1
3.244474750E0,-4.564012018E0,-1.092531662E1,4.894368300E0,1.281200960E1
3.254442750E0,-4.523748676E0,-1.115274174E1,4.436859051E0,1.282706781E1
3.264411750E0,-4.329817582E0,-1.141389242E1,3.833851196E0,1.279541619E1
3.274380750E0,-4.354379396E0,-1.176627604E1,3.344955263E0,1.298439824E1
3.284348750E0,-4.584588954E0,-1.216103794E1,3.038631037E0,1.334700634E1
3.294317750E0,-5.003722050E0,-1.245753739E1,2.837009393E0,1.372137363E1
3.304286750E0,-5.272050776E0,-1.279238638E1,2.534825288E0,1.406644972E1
3.314254750E0,-5.036510312E0,-1.325102326E1,2.283469859E0,1.435863114E1
3.324223750E0,-4.223705236E0,-1.362874287E1,2.102813554E0,1.442234873E1
3.334192750E0,-3.309834546E0,-1.395605597E1,1.856792832E0,1.446285527E1
3.344160750E0,-2.550703987E0,-1.416344618E1,1.620524243E0,1.448224421E1
3.354129750E0,-1.614022139E0,-1.435333568E1,1.254126162E0,1.449814281E1
3.364098750E0,-4.813901550E-1,-1.439920942E1,8.839061947E-1,1.443434303E1
3.374066750E0,5.530530453E-1,-1.460582898E1,6.771331541E-1,1.463197242E1
3.384035750E0,1.292567950E0,-1.465260436E1,6.017683916E-1,1.472180939E1
3.394004750E0,1.920440798E0,-1.462717599E1,6.294211900E-1,1.476612818E1
3.403972750E0,2.579729565E0,-1.489067842E1,9.016546869E-1,1.513936226E1
3.413941750E0,3.231350879E0,-1.498777963E1,1.303979377E0,1.538751211E1
3.423910750E0,3.721833454E0,-1.453757443E1,1.618733826E0,1.509348912E1
3.433878750E0,4.659179546E0,-1.426828442E1,1.837681646E0,1.512180439E1
3.443847750E0,5.468748772E0,-1.405901842E1,1.734144999E0,1.518454711E1
3.453816750E0,5.704434832E0,-1.332302588E1,1.237286035E0,1.454559975E1
3.463784750E0,6.112084581E0,-1.275074251E1,6.184447968E-1,1.415349732E1
3.473753750E0,6.600321241E0,-1.244308190E1,2.883238649E-1,1.408820990E1
3.483722750E0,7.299664605E0,-1.204556128E1,1.691131711E-2,1.408477674E1
3.493690750E0,8.509939427E0,-1.154411342E1,-2.156675327E-1,1.434336558E1
3.503659750E0,9.704140838E0,-1.081450253E1,-2.800546960E-1,1.453279894E1
3.513628750E0,1.062332899E1,-1.012959711E1,-2.961427983E-1,1.468167419E1
3.523596750E0,1.148340295E1,-9.540691865E0,-1.836317710E-1,1.493074229E1
3.533565750E0,1.213547392E1,-8.692571946E0,1.462622889E-1,1.492822585E1
3.543534750E0,1.252327529E1,-7.736059266E0,3.403244694E-1,1.472395524E1
3.553502750E0,1.288676745E1,-6.879691849E0,8.861128608E-1,1.463503097E1
3.563471750E0,1.330684078E1,-6.350974916E0,1.914834487E0,1.486854011E1
3.573440750E0,1.338017890E1,-5.941756359E0,3.261174603E0,1.499896382E1
3.583408750E0,1.316824540E1,-5.174711008E0,4.411503477E0,1.482031322E1
3.593377750E0,1.312967600E1,-4.188224916E0,5.329966278E0,1.477627017E1
3.603346750E0,1.335178131E1,-3.327726442E0,5.761884896E0,1.491788004E1
3.613314750E0,1.321921441E1,-2.126147599E0,5.491195064E0,1.447139787E1
3.623283750E0,1.315741986E1,-7.644357383E-1,5.165993979E0,1.415590171E1
3.633252750E0,1.333133945E1,2.594275099E-1,4.961260740E0,1.422694704E1
3.643220750E0,1.327260417E1,1.041492019E0,4.780561018E0,1.414568806E1
3.653189750E0,1.278845588E1,1.634436523E0,4.741701593E0,1.373680168E1
3.663158750E0,1.220338582E1,2.100007621E0,4.901731406E0,1.331764349E1
3.673126750E0,1.167732820E1,2.619374857E0,5.476494579E0,1.316104522E1
3.683095750E0,1.150309638E1,2.937779723E0,6.517048119E0,1.354340032E1
3.693064750E0,1.150326244E1,3.144710931E0,7.606348143E0,1.414463805E1
3.703032750E0,1.161091786E1,3.469341327E0,8.293412939E0,1.468436042E1
3.713001750E0,1.143328998E1,3.863328472E0,8.625476316E0,1.483388918E1
3.722970750E0,1.088978426E1,4.260222852E0,8.490119705E0,1.445057205E1
3.732938750E0,1.051229738E1,4.771076542E0,8.190334713E0,1.415461586E1
3.742907750E0,1.055855704E1,5.232397884E0,8.142956479E0,1.432371651E1
3.752876667E0,1.081264078E1,5.575066355E0,8.236135368E0,1.469110245E1
3.762844667E0,1.102140041E1,5.848766919E0,8.246641645E0,1.495615057E1
3.772813667E0,1.138946393E1,6.097691660E0,8.383346039E0,1.540072151E1
3.782782667E0,1.167471449E1,6.638467306E0,8.702402285E0,1.600312508E1
3.792750667E0,1.197372473E1,7.332037130E0,9.110725048E0,1.673720895E1
3.802719667E0,1.269721359E1,7.941745602E0,9.623127666E0,1.780154887E1
3.812688667E0,1.357943564E1,8.618191270E0,1.022823964E1,1.906019882E1
3.822656667E0,1.448366193E1,9.392991198E0,1.071373980E1,2.031720864E1
3.832625667E0,1.547021234E1,9.802276413E0,1.114279446E1,2.143767620E1
3.842594667E0,1.677173355E1,9.797288738E0,1.166170795E1,2.265553674E1
3.852562667E0,1.781535746E1,9.753465611E0,1.185722481E1,2.351830846E1
3.862531667E0,1.833939077E1,9.235069013E0,1.160028996E1,2.358360619E1
3.872499667E0,1.841577412E1,8.405993475E0,1.116712238E1,2.311938765E1
3.882468667E0,1.816439647E1,7.947506863E0,1.056727992E1,2.246721098E1
3.892437667E0,1.821228985E1,7.081270516E0,9.607466483E0,2.177464824E1
3.902405667E0,1.830433789E1,5.827117603E0,8.497583676E0,2.100507113E1
3.912374667E0,1.799377004E1,5.043469083E0,7.229941821E0,2.003707562E1
3.922343667E0,1.755992652E1,4.673339163E0,5.786058455E0,1.907012299E1
3.932311667E0,1.745695706E1,3.814011301E0,4.555702247E0,1.844034855E1
3.942280667E0,1.756612925E1,2.460487297E0,3.495865174E0,1.807882651E1
3.952249667E0,1.755208658E1,1.143399632E0,2.456225553E0,1.775995917E1
3.962217667E0,1.733618983E1,-5.011584216E-1,1.577283791E0,1.741500680E1
3.972186667E0,1.704256605E1,-2.252436347E0,1.088283777E0,1.722518182E1
3.982155667E0,1.693946678E1,-3.897214841E0,9.481283569E-1,1.740783633E1
3.992123667E0,1.674083803E1,-5.275989461E0,1.145679754E0,1.758989212E1
4.002092667E0,1.667891835E1,-6.606615184E0,1.631915496E0,1.801379554E1
4.012061667E0,1.665532835E1,-7.967737645E0,2.241103274E0,1.859858461E1
4.022029667E0,1.657984313E1,-9.126041245E0,2.868692239E0,1.914171419E1
4.031998667E0,1.615650121E1,-1.014167044E1,3.301384735E0,1.935936858E1
4.041967667E0,1.573305872E1,-1.121143960E1,3.622416463E0,1.965572221E1
4.051935667E0,1.535311834E1,-1.222073217E1,3.741075179E0,1.997649071E1
4.061904667E0,1.483273953E1,-1.318086603E1,3.496813885E0,2.014877412E1
4.071873667E0,1.433311367E1,-1.433675064E1,3.101212324E0,2.050848810E1
4.081841667E0,1.376769142E1,-1.555413158E1,2.846272552E0,2.096620146E1
4.091810667E0,1.300161729E1,-1.666593052E1,2.569162477E0,2.129309485E1
4.101779667E0,1.177314418E1,-1.759437364E1,2.580193834E0,2.132665721E1
4.111747667E0,1.025497311E1,-1.807238352E1,2.685048444E0,2.095196899E1
4.121716667E0,8.916936627E0,-1.797547761E1,2.350873345E0,2.020287504E1
4.131685667E0,7.936474922E0,-1.789593677E1,1.649830342E0,1.964622425E1
4.141653667E0,7.268340486E0,-1.769510362E1,1.205191838E0,1.916762774E1
4.151622667E0,6.243163369E0,-1.759123602E1,1.010075075E0,1.869355304E1
4.161591667E0,4.673390619E0,-1.737960892E1,9.450704093E-1,1.802177971E1
4.171559667E0,3.103949990E0,-1.722001618E1,1.023170207E0,1.752741681E1
4.181528667E0,1.675340136E0,-1.694998942E1,1.122146026E0,1.706950842E1
4.191497667E0,2.172901350E-1,-1.653609894E1,1.231760270E0,1.658333551E1
4.201465667E0,-1.171298452E0,-1.590604742E1,1.420893284E0,1.601228349E1
4.211434667E0,-2.289173234E0,-1.520361907E1,1.656987480E0,1.546402129E1
4.221403667E0,-3.165524095E0,-1.453077762E1,1.786345578E0,1.497848696E1
4.231371667E0,-3.876064292E0,-1.384679957E1,1.936004916E0,1.450881966E1
4.241340667E0,-4.422195988E0,-1.306891407E1,2.210529499E0,1.397278687E1
4.251309667E0,-4.876571422E0,-1.235502868E1,2.645513080E0,1.354350110E1
4.261277667E0,-5.266422831E0,-1.200543067E1,3.049291680E0,1.345970857E1
4.271246667E0,-5.821135901E0,-1.171263603E1,3.264254916E0,1.348060926E1
4.281215667E0,-6.295552667E0,-1.140960407E1,3.457235836E0,1.348204466E1
4.291183667E0,-6.662633849E0,-1.123791462E1,3.344586303E0,1.348583228E1
4.301152667E0,-6.994816509E0,-1.107310266E1,3.066114997E0,1.345147285E1
4.311121667E0,-7.276852863E0,-1.091263518E1,2.870539666E0,1.342677147E1
4.321089667E0,-7.493199257E0,-1.067747654E1,2.741198964E0,1.332931777E1
4.331058667E0,-7.493354793E0,-1.053544767E1,3.047438990E0,1.328280498E1
4.341027667E0,-7.432345530E0,-1.055487563E1,3.508675254E0,1.337744227E1
4.350995667E0,-7.396434855E0,-1.051588289E1,4.062917039E0,1.348326134E1
4.360964667E0,-7.308859937E0,-1.048262393E1,4.813353373E0,1.365551935E1
4.370933667E0,-7.203393708E0,-1.067276135E1,5.606714410E0,1.404392973E1
4.380901667E0,-7.202227773E0,-1.076537072E1,6.249590628E0,1.438133077E1
4.390870667E0,-7.416497236E0,-1.082848439E1,6.588561906E0,1.468569554E1
4.400839667E0,-7.768418927E0,-1.097007589E1,6.764777690E0,1.504835921E1
4.410807667E0,-8.079140552E0,-1.087561061E1,7.100192106E0,1.529588658E1
4.420776667E0,-8.457594568E0,-1.078923437E1,7.318243548E0,1.554011496E1
4.430744667E0,-8.742562716E0,-1.086122997E1,7.501346183E0,1.583252708E1
4.440713667E0,-8.726784005E0,-1.097649146E1,7.568147698E0,1.593477277E1
4.450682667E0,-8.685745322E0,-1.107195310E1,7.264096577E0,1.583658474E1
4.460650667E0,-8.528552284E0,-1.113070358E1,6.597230988E0,1.549684558E1
4.470619667E0,-8.263068813E0,-1.107351898E1,5.747123015E0,1.496430927E1
4.480588667E0,-7.905121567E0,-1.114093387E1,4.893746449E0,1.451068947E1
4.490556667E0,-7.435422335E0,-1.140262133E1,4.043713320E0,1.420059491E1
4.500525667E0,-6.959115749E0,-1.177291497E1,3.355636371E0,1.408158778E1
4.510494667E0,-6.631543618E0,-1.209784825E1,2.863100839E0,1.409016145E1
4.520462667E0,-6.332606472E0,-1.253643270E1,2.610379793E0,1.428559177E1
4.530431667E0,-5.915203568E0,-1.317240979E1,2.586086951E0,1.466935099E1
4.540400667E0,-5.502641573E0,-1.392664681E1,2.655174142E0,1.520790930E1
4.550368667E0,-4.918789489E0,-1.477211209E1,2.796679100E0,1.581869779E1
4.560337667E0,-4.311094798E0,-1.533652862E1,3.107953871E0,1.623126692E1
4.570306667E0,-3.472234529E0,-1.554094026E1,3.454829415E0,1.629457220E1
4.580274667E0,-2.339194409E0,-1.558897046E1,3.499965534E0,1.614737097E1
4.590243667E0,-1.411852904E0,-1.543900926E1,3.471255705E0,1.588728900E1
4.600212667E0,-4.980196363E-1,-1.548454971E1,3.242426383E0,1.582822265E1
4.610180667E0,5.896764958E-1,-1.572457441E1,2.844121946E0,1.599059062E1
4.620149667E0,1.895243976E0,-1.576472841E1,2.657614478E0,1.609911570E1
4.630118667E0,2.998840442E0,-1.562949400E1,2.635798516E0,1.613138434E1
4.640086667E0,3.592201268E0,-1.542716631E1,2.441666279E0,1.602694932E1
4.650055667E0,4.062303958E0,-1.529430237E1,2.213587446E0,1.597867228E1
4.660024667E0,4.739194014E0,-1.519214917E1,2.057008513E0,1.604657721E1
4.669992667E0,5.289011795E0,-1.487213807E1,1.933970085E0,1.590265314E1
4.679961667E0,5.981781135E0,-1.456001253E1,1.815440007E0,1.584523565E1
4.689930667E0,6.614887240E0,-1.422689900E1,1.770754416E0,1.578914055E1
4.699898667E0,7.032389547E0,-1.375215537E1,1.640595396E0,1.553279863E1
4.709867667E0,7.606387904E0,-1.337296344E1,1.502453756E0,1.545802883E1
4.719836667E0,8.413661513E0,-1.284996742E1,1.242490057E0,1.540957963E1
4.729804667E0,9.225817548E0,-1.236224648E1,8.011094749E-1,1.544612003E1
4.739773667E0,9.859045275E0,-1.193481034E1,4.189343270E-1,1.548599295E1
4.749742667E0,1.061978791E1,-1.150906054E1,2.638544734E-1,1.566231110E1
4.759710875E0,1.107103158E1,-1.109258792E1,3.255051398E-1,1.567543303E1
4.769679875E0,1.144987970E1,-1.071367198E1,6.017837405E-1,1.569218455E1
4.779648875E0,1.192158160E1,-1.018610461E1,1.067643106E0,1.571689208E1
4.789616875E0,1.264518623E1,-9.553009025E0,1.891452495E0,1.596052345E1
4.799585875E0,1.321202584E1,-9.025094914E0,2.871304482E0,1.625590214E1
4.809554875E0,1.351421112E1,-8.424103471E0,3.657624010E0,1.633945026E1
4.819522875E0,1.392593813E1,-7.548277105E0,4.353604933E0,1.642748051E1
4.829491875E0,1.418151992E1,-6.629881840E0,5.071166174E0,1.645562417E1
4.839460875E0,1.440294580E1,-5.811783280E0,5.891729336E0,1.661126567E1
4.849428875E0,1.440478182E1,-5.269554015E0,6.697012553E0,1.673666382E1
4.859397875E0,1.433806509E1,-5.035116336E0,7.538490036E0,1.696352968E1
4.869365875E0,1.451540412E1,-4.520672455E0,8.294856616E0,1.731872058E1
4.879334875E0,1.458200508E1,-3.478233188E0,8.702421581E0,1.733392972E1
4.889303875E0,1.460238964E1,-2.374047908E0,8.972551834E0,1.730238634E1
4.899271875E0,1.468898223E1,-1.528033571E0,9.130481036E0,1.736279843E1
4.909240875E0,1.473143301E1,-8.663527071E-1,9.060972844E0,1.731666580E1
4.919209875E0,1.476366871E1,-1.772951800E-1,8.964939344E0,1.727331714E1
4.929177875E0,1.499722171E1,7.020465320E-1,9.039240498E0,1.752476525E1
4.939146875E0,1.521785821E1,1.662055262E0,9.272157902E0,1.789744530E1
4.949115875E0,1.521676829E1,2.552334191E0,9.472730262E0,1.810516682E1
4.959083875E0,1.506785257E1,3.397351577E0,9.682147121E0,1.822981491E1
4.969052875E0,1.485697157E1,4.086797944E0,9.735674288E0,1.822676261E1
4.979021875E0,1.458118062E1,4.453414857E0,9.508553229E0,1.796820294E1
4.988989875E0,1.462625915E1,4.740886198E0,9.426165376E0,1.803485659E1
4.998958875E0,1.497956780E1,5.392112825E0,9.686457689E0,1.863571288E1
5.008927875E0,1.534403410E1,6.471169111E0,1.000688978E1,1.942815625E1
5.018895875E0,1.579958015E1,7.415873339E0,1.024936914E1,2.024034283E1
5.028864875E0,1.612302707E1,8.012485802E0,1.023823370E1,2.071167207E1
5.038833875E0,1.653389922E1,8.382415747E0,1.019954618E1,2.115810624E1
5.048801875E0,1.705395643E1,8.608487231E0,1.001985891E1,2.157176522E1
5.058770875E0,1.786103591E1,8.481590372E0,9.832983066E0,2.208260707E1
5.068739875E0,1.872826570E1,7.866420600E0,9.685222757E0,2.250404517E1
5.078707875E0,1.917489825E1,7.159815579E0,9.506357599E0,2.256790900E1
5.088676875E0,1.905738091E1,7.035588559E0,9.164972591E0,2.228631859E1
5.098645875E0,1.904672962E1,7.084449647E0,8.637922114E0,2.208123716E1
5.108613875E0,1.961197528E1,6.765311540E0,8.021708030E0,2.224290481E1
5.118582875E0,2.011109829E1,6.631354753E0,7.362598772E0,2.241961197E1
5.128551875E0,2.028321459E1,6.741706331E0,6.493531787E0,2.233887538E1
5.138519875E0,2.058810946E1,6.355920491E0,5.167037707E0,2.215775835E1
5.148488875E0,2.077995661E1,5.392936698E0,3.693818275E0,2.178381638E1
5.158456875E0,2.059311000E1,4.175981432E0,2.475536860E0,2.115758217E1
5.168425875E0,2.024890547E1,2.742814257E0,1.563194633E0,2.049353020E1
5.178394875E0,2.004799747E1,9.671230370E-1,8.119350100E-1,2.008772680E1
5.188362875E0,1.998679116E1,-9.248938608E-1,4.561924562E-1,2.001337955E1
5.198331875E0,2.000885387E1,-2.929877796E0,3.312845278E-1,2.022493923E1
5.208300875E0,2.008559039E1,-4.991305488E0,2.572649172E-1,2.069807375E1
5.218268875E0,2.019220385E1,-7.075659528E0,3.400492117E-1,2.139873098E1
5.228237875E0,2.008707091E1,-9.113883129E0,5.595340991E-1,2.206504842E1
5.238206875E0,1.976932853E1,-1.099646788E1,9.577221760E-1,2.264212641E1
5.248174875E0,1.934279286E1,-1.275074718E1,1.509958073E0,2.321648472E1
5.258143875E0,1.912843394E1,-1.434032445E1,2.124326776E0,2.400113861E1
5.268112875E0,1.897001181E1,-1.601141659E1,2.698189184E0,2.497012283E1
5.278080875E0,1.869916177E1,-1.778595532E1,3.160913858E0,2.599981219E1
5.288049875E0,1.845886693E1,-1.933773385E1,3.518063836E0,2.696394801E1
5.298018875E0,1.783216587E1,-2.078142075E1,4.023540426E0,2.767747217E1
5.307986875E0,1.696280652E1,-2.215219053E1,4.326383220E0,2.823426893E1
5.317955875E0,1.583333028E1,-2.331850423E1,4.471533040E0,2.853842314E1
5.327924875E0,1.447230313E1,-2.432263956E1,4.717383315E0,2.869306638E1
5.337892875E0,1.262584013E1,-2.480528277E1,4.881419349E0,2.825848806E1
5.347861875E0,1.038286575E1,-2.461458402E1,5.074507273E0,2.719250396E1
5.357830875E0,8.557179083E0,-2.396020341E1,5.412486863E0,2.601176032E1
5.367798875E0,7.134018248E0,-2.334540610E1,5.404532311E0,2.500222334E1
5.377767875E0,5.423055705E0,-2.289395428E1,4.925659382E0,2.403757051E1
5.387736875E0,3.757220803E0,-2.241948313E1,4.188281927E0,2.311474935E1
5.397704875E0,2.320563426E0,-2.162483249E1,3.582758600E0,2.204210866E1
5.407673875E0,1.142890339E0,-2.079458634E1,2.958837301E0,2.103510726E1
5.417642875E0,-1.460423970E-1,-1.992828392E1,2.417214539E0,2.007487869E1
5.427610875E0,-1.582948281E0,-1.890874586E1,2.253659731E0,1.910825417E1
5.437579875E0,-2.942249919E0,-1.779578566E1,2.338483973E0,1.818832948E1
5.447547875E0,-4.028471383E0,-1.677060153E1,2.361642309E0,1.740859017E1
5.457516875E0,-4.673129833E0,-1.598686296E1,2.468260585E0,1.683776232E1
5.467485875E0,-5.086338530E0,-1.521029074E1,2.600546823E0,1.624766530E1
5.477453875E0,-5.554875335E0,-1.450344774E1,2.591399731E0,1.574553870E1
5.487422875E0,-5.908590367E0,-1.376730668E1,2.745089993E0,1.523107653E1
5.497391875E0,-6.132035866E0,-1.299857206E1,3.035505992E0,1.468941919E1
5.507359875E0,-6.257079157E0,-1.228696943E1,3.432583390E0,1.420926761E1
5.517328875E0,-6.373897755E0,-1.176297821E1,4.084640906E0,1.398851387E1
5.527297875E0,-6.548669862E0,-1.163153748E1,4.684943840E0,1.414660525E1
5.537265875E0,-6.680857281E0,-1.174195747E1,5.331713426E0,1.452358728E1
5.547234875E0,-6.645247738E0,-1.193409581E1,5.871310859E0,1.486789331E1
5.557203875E0,-6.548302656E0,-1.211716395E1,6.400155262E0,1.518775550E1
5.567171875E0,-6.559532234E0,-1.216229743E1,6.909429034E0,1.544956801E1
5.577140875E0,-6.744780797E0,-1.200645160E1,7.304540598E0,1.558856187E1
5.587109875E0,-6.981007140E0,-1.176549719E1,7.905285289E0,1.580047216E1
5.597077875E0,-7.366564938E0,-1.160714173E1,8.539114695E0,1.618358730E1
5.607046875E0,-7.669256582E0,-1.158436566E1,8.965205392E0,1.653450731E1
5.617015875E0,-7.799921971E0,-1.153685703E1,9.427830663E0,1.681730787E1
5.626983875E0,-7.859380553E0,-1.149629723E1,9.729488518E0,1.698816234E1
5.636952875E0,-7.854143786E0,-1.148135877E1,9.711653341E0,1.696541731E1
5.646921875E0,-7.800439450E0,-1.150435353E1,9.321862158E0,1.673601266E1
5.656889875E0,-7.790524326E0,-1.154151843E1,8.655659058E0,1.639571135E1
5.666858875E0,-7.728401168E0,-1.151539775E1,7.989876373E0,1.600533331E1
5.676827875E0,-7.557287080E0,-1.143364198E1,7.365827020E0,1.555943973E1
5.686795875E0,-7.259962596E0,-1.155003548E1,6.710717842E0,1.520342430E1
5.696764875E0,-6.960077616E0,-1.169956750E1,6.093593346E0,1.491490664E1
5.706732875E0,-6.708813989E0,-1.175088032E1,5.595364380E0,1.464238628E1
5.716701875E0,-6.405907168E0,-1.193651773E1,5.200413029E0,1.451069942E1
5.726670875E0,-6.034977348E0,-1.227257475E1,4.865656717E0,1.451591051E1
5.736638875E0,-5.558946167E0,-1.278361088E1,4.639859176E0,1.469186451E1
5.746607875E0,-5.084355154E0,-1.346714922E1,4.390467242E0,1.504961720E1
5.756576625E0,-4.521754190E0,-1.416401336E1,4.172557010E0,1.544266063E1
5.766544625E0,-4.014059166E0,-1.464844114E1,4.052875907E0,1.571990146E1
5.776513625E0,-3.861540978E0,-1.484453922E1,4.018412711E0,1.585621279E1
5.786482625E0,-3.374249813E0,-1.513234268E1,3.883149071E0,1.598287219E1
5.796450625E0,-2.586687167E0,-1.514971242E1,3.466628511E0,1.575507061E1
5.806419625E0,-1.567963037E0,-1.496161801E1,2.894561490E0,1.531949764E1
5.816388625E0,-4.612231082E-1,-1.488234030E1,2.183826288E0,1.504878323E1
5.826356625E0,2.487738830E-1,-1.486712935E1,1.281001281E0,1.492428852E1
5.836325625E0,9.709769368E-1,-1.497646293E1,2.935049365E-1,1.501077557E1
5.846294625E0,1.828658223E0,-1.517013440E1,-5.219224691E-1,1.528886431E1
5.856262625E0,2.724339979E0,-1.514909729E1,-1.016844981E0,1.542566533E1
5.866231625E0,3.497498009E0,-1.503530463E1,-1.065159355E0,1.547344312E1
5.876200625E0,3.891928958E0,-1.514027735E1,-6.650528066E-1,1.564664196E1
5.886168625E0,4.136937234E0,-1.534590287E1,-1.628669561E-1,1.589457487E1
5.896137625E0,4.605248922E0,-1.569614524E1,4.881034163E-1,1.636507067E1
5.906106625E0,5.471394637E0,-1.616953816E1,1.138173391E0,1.710805548E1
5.916074625E0,6.631093968E0,-1.633818239E1,1.711016922E0,1.771539415E1
5.926043625E0,7.922604157E0,-1.616614093E1,2.249087062E0,1.814304720E1
5.936012625E0,9.570320292E0,-1.612273822E1,2.704153637E0,1.894323534E1
5.945980625E0,1.152633906E1,-1.556783979E1,2.896666195E0,1.958583169E1
5.955949625E0,1.318528419E1,-1.426754767E1,2.771007192E0,1.962378955E1
5.965917625E0,1.454407536E1,-1.310234260E1,2.489007676E0,1.973313632E1
5.975886625E0,1.560861827E1,-1.199738958E1,2.004295717E0,1.978846943E1
5.985855625E0,1.595635219E1,-1.072098918E1,1.940984551E0,1.932128891E1
5.995823625E0,1.612471224E1,-9.351599928E0,2.327835170E0,1.878503613E1
6.005792625E0,1.638118281E1,-8.190102578E0,3.388891826E0,1.862539982E1
6.015761625E0,1.630744591E1,-6.635251923E0,4.906465312E0,1.827656319E1
6.025729625E0,1.627608028E1,-5.020192487E0,6.008522791E0,1.806143593E1
6.035698625E0,1.681290613E1,-3.394452528E0,6.872375228E0,1.847770716E1
6.045667625E0,1.787671580E1,-1.290220878E0,7.502012765E0,1.942992108E1
6.055635625E0,1.838871672E1,9.475500673E-1,7.400673501E0,1.984471521E1
6.065604625E0,1.836327899E1,2.435474662E0,6.603412664E0,1.966587427E1
6.075573625E0,1.794875701E1,3.251917875E0,5.553341610E0,1.906757591E1
6.085541625E0,1.711701397E1,3.727239205E0,4.585834119E0,1.810840562E1
6.095510625E0,1.645056353E1,4.171125319E0,4.089154665E0,1.745681852E1
6.105479625E0,1.572768162E1,4.695535778E0,3.655785645E0,1.681584949E1
6.115447625E0,1.506061605E1,4.907879169E0,3.080988851E0,1.613697388E1
6.125416625E0,1.466858129E1,4.989437302E0,2.885997073E0,1.576041690E1
6.135385625E0,1.453371760E1,5.407413819E0,3.431175381E0,1.588212946E1
6.145353625E0,1.406197945E1,5.841640332E0,4.077506719E0,1.576356840E1
6.155322625E0,1.307332170E1,6.128280784E0,4.207641473E0,1.503900969E1
6.165291625E0,1.219110433E1,6.532147384E0,4.405652169E0,1.451556906E1
6.175259625E0,1.124650769E1,6.850976173E0,4.344470412E0,1.386701961E1
6.185228625E0,1.026413336E1,7.235437619E0,4.058854393E0,1.319766230E1
6.195196625E0,9.778195825E0,7.827788047E0,3.817409995E0,1.309427349E1
6.205165625E0,9.521554513E0,8.592960534E0,3.730697833E0,1.335728556E1
6.215134625E0,9.349831145E0,9.379040911E0,3.788614797E0,1.377459084E1
6.225102625E0,9.329526104E0,1.005369558E1,3.806519848E0,1.423398909E1
6.235071625E0,9.663876327E0,1.062001595E1,4.006846626E0,1.490738288E1
6.245040625E0,1.005110643E1,1.108199628E1,4.400342312E0,1.559481947E1
6.255008625E0,1.011786643E1,1.110872975E1,4.731606959E0,1.575319657E1
6.264977625E0,1.007823517E1,1.075353478E1,5.075044048E0,1.558734764E1
6.274946625E0,9.788274086E0,1.009114348E1,5.350218694E0,1.504215166E1
6.284914625E0,9.556702711E0,8.866835929E0,5.745148995E0,1.424633578E1
6.294883625E0,9.504155538E0,7.450361386E0,6.582685454E0,1.375385782E1
6.304852625E0,9.435274168E0,6.523103496E0,7.735901392E0,1.383544174E1
6.314820625E0,9.871777003E0,5.779566876E0,8.840758517E0,1.445732982E1
6.324789625E0,1.082977078E1,4.791962796E0,9.390719554E0,1.511398215E1
6.334758625E0,1.184966552E1,4.114747635E0,9.695419132E0,1.585392296E1
6.344726625E0,1.284899210E1,3.972518207E0,9.775876819E0,1.662664327E1
6.354695625E0,1.427426378E1,3.720915442E0,9.142829186E0,1.735485937E1
6.364664625E0,1.578177070E1,3.324944921E0,7.987863761E0,1.799793079E1
6.374632625E0,1.669726926E1,2.838953592E0,6.709558339E0,1.821748147E1
6.384601625E0,1.725352190E1,2.151523930E0,5.493311756E0,1.823429590E1
6.394569625E0,1.748702344E1,1.283559145E0,4.503550346E0,1.810318973E1
6.404538625E0,1.737904525E1,3.856484306E-1,3.741586811E0,1.778143443E1
6.414507625E0,1.693928551E1,-6.568446314E-1,3.344410887E0,1.727877087E1
6.424475625E0,1.633742693E1,-1.682448596E0,2.782006974E0,1.665778241E1
6.434444625E0,1.588937935E1,-2.650206056E0,2.468574873E0,1.629692702E1
6.444413625E0,1.560125780E1,-3.862007586E0,2.363785752E0,1.624505557E1
6.454381625E0,1.515835343E1,-5.087181698E0,2.460496360E0,1.617742683E1
6.464350625E0,1.468997743E1,-6.103420762E0,2.685444593E0,1.613253837E1
6.474319625E0,1.429950855E1,-7.104587458E0,2.579762310E0,1.617424747E1
6.484287625E0,1.374950775E1,-8.218099047E0,2.504404564E0,1.621290096E1
6.494256625E0,1.310939668E1,-9.442558045E0,2.530188446E0,1.635298252E1
6.504225625E0,1.242956548E1,-1.071506011E1,2.606468883E0,1.661626586E1
6.514193625E0,1.166982505E1,-1.185432225E1,2.803677925E0,1.686921405E1
6.524162625E0,1.120760850E1,-1.300985017E1,3.110839180E0,1.745118937E1
6.534131625E0,1.070171442E1,-1.431737062E1,3.116431457E0,1.814458427E1
6.544099625E0,9.882432969E0,-1.513603578E1,3.642860960E0,1.843997008E1
6.554068625E0,8.832560136E0,-1.574599977E1,4.112457865E0,1.851655846E1
6.564037625E0,7.697919048E0,-1.636173731E1,4.040451744E0,1.852807750E1
6.574005625E0,7.147293767E0,-1.690672705E1,3.287567765E0,1.864750196E1
6.583974625E0,6.364115948E0,-1.679435642E1,2.681631331E0,1.815884154E1
6.593942625E0,5.044353182E0,-1.648733199E1,2.372492548E0,1.740420456E1
6.603911625E0,3.860915911E0,-1.649453693E1,2.327141251E0,1.709947387E1
6.613880625E0,2.507063878E0,-1.624300726E1,2.484531047E0,1.662208015E1
6.623848625E0,1.104662413E0,-1.581397600E1,2.774970435E0,1.609355700E1
6.633817625E0,-4.433008075E-2,-1.536941687E1,3.086122999E0,1.567625897E1
6.643786625E0,-1.254665129E0,-1.483704776E1,3.158045506E0,1.522121619E1
6.653754625E0,-2.380640059E0,-1.416471152E1,3.246649242E0,1.472573362E1
6.663723625E0,-3.304610644E0,-1.334205856E1,3.362107485E0,1.415043268E1
6.673692625E0,-4.031119003E0,-1.256965190E1,3.440131269E0,1.364113531E1
6.683660625E0,-4.691881269E0,-1.191344695E1,3.472871876E0,1.326668034E1
6.693629625E0,-5.214953300E0,-1.128568286E1,3.418467920E0,1.289373098E1
6.703598625E0,-5.519862208E0,-1.079198374E1,3.387335589E0,1.258609686E1
6.713566625E0,-5.731621462E0,-1.037353126E1,3.263618739E0,1.229279637E1
6.723535625E0,-5.841712253E0,-1.004224556E1,3.257116342E0,1.206569951E1
6.733504625E0,-5.916615670E0,-9.825719655E0,3.414013511E0,1.196689584E1
6.743472625E0,-5.991075869E0,-9.679290757E0,3.689712068E0,1.196643785E1
6.753441750E0,-6.167302762E0,-9.604378569E0,4.037445398E0,1.210705069E1
6.763410750E0,-6.547754188E0,-9.548552277E0,4.317617659E0,1.235676971E1
6.773378750E0,-6.884277236E0,-9.662151983E0,4.511662188E0,1.269273610E1
6.783347750E0,-7.075130939E0,-9.767095470E0,4.927921085E0,1.302835515E1
6.793315750E0,-6.990745093E0,-1.006089701E1,5.713482229E0,1.351798967E1
6.803284750E0,-6.781818815E0,-1.047767484E1,6.540158070E0,1.409072050E1
6.813253750E0,-6.776929373E0,-1.056699457E1,7.308271122E0,1.452580369E1
6.823221750E0,-6.739815926E0,-1.054688951E1,7.970443152E0,1.483879918E1
6.833190750E0,-6.593649568E0,-1.074357347E1,8.395349203E0,1.514537797E1
6.843159750E0,-6.525269889E0,-1.072594294E1,8.743695322E0,1.529958192E1
6.853127750E0,-6.437926521E0,-1.054794668E1,9.050429730E0,1.531719150E1
6.863096750E0,-6.198997010E0,-1.067376239E1,9.227124985E0,1.541092479E1
6.873065750E0,-5.882884837E0,-1.093371557E1,9.239026408E0,1.547624241E1
6.883033750E0,-5.721305219E0,-1.101683023E1,9.111647739E0,1.539889627E1
6.893002750E0,-5.586329847E0,-1.097409527E1,8.824323163E0,1.514947284E1
6.902971750E0,-5.259569895E0,-1.116404324E1,8.436539329E0,1.494905123E1
6.912939750E0,-5.116004378E0,-1.158238930E1,7.910654787E0,1.492995987E1
6.922908750E0,-5.305398032E0,-1.188018799E1,7.236123497E0,1.488783390E1
6.932877750E0,-5.524500219E0,-1.196415284E1,6.716310704E0,1.479087169E1
6.942845750E0,-5.599106013E0,-1.216839725E1,6.286238637E0,1.479650891E1
6.952814750E0,-5.440252951E0,-1.265491132E1,5.826110712E0,1.495615922E1
6.962782750E0,-5.188632644E0,-1.324800727E1,5.256146935E0,1.516768558E1
6.972751750E0,-4.710495295E0,-1.365063133E1,4.803413691E0,1.521845212E1
6.982720750E0,-4.064432929E0,-1.383114190E1,4.521174147E0,1.510831284E1
6.992688750E0,-3.538463602E0,-1.370116414E1,4.282130030E0,1.478442630E1
7.002657750E0,-3.093240815E0,-1.361063053E1,4.114715183E0,1.455157322E1
7.012626750E0,-2.541647235E0,-1.370105538E1,3.889540662E0,1.446746059E1
7.022594750E0,-1.856286902E0,-1.386771740E1,3.533843717E0,1.443078094E1
7.032563750E0,-1.043662505E0,-1.407710970E1,3.067640828E0,1.444522998E1
7.042532750E0,-2.380752325E-2,-1.424828811E1,2.619775684E0,1.448714967E1
7.052500750E0,8.462113881E-1,-1.415440171E1,2.170247299E0,1.434479469E1
7.062469750E0,1.531797423E0,-1.392125451E1,1.778478880E0,1.411774478E1
7.072438750E0,2.240541941E0,-1.375039185E1,1.566884226E0,1.401957312E1
7.082406750E0,2.653614982E0,-1.352662826E1,1.389211608E0,1.385428647E1
7.092375750E0,2.902733851E0,-1.327060793E1,1.279399144E0,1.364447730E1
7.102344750E0,3.113691452E0,-1.304602573E1,1.285972437E0,1.347395958E1
7.112312750E0,3.524947178E0,-1.297481717E1,1.350560343E0,1.351277715E1
7.122281750E0,3.849287553E0,-1.285193910E1,1.471286197E0,1.349644532E1
7.132249750E0,4.106129424E0,-1.262717213E1,1.533493116E0,1.336627757E1
7.142218750E0,4.734874676E0,-1.228620812E1,1.351979462E0,1.323623045E1
7.152187750E0,5.627094296E0,-1.200787130E1,1.145211099E0,1.331032200E1
7.162155750E0,6.573973687E0,-1.180826724E1,9.048716788E-1,1.354515035E1
7.172124750E0,7.774881270E0,-1.166547355E1,5.635452890E-1,1.403031130E1
7.182093750E0,9.008554310E0,-1.143350632E1,3.930019621E-1,1.456137247E1
7.192061750E0,9.936040242E0,-1.097095297E1,4.036789048E-1,1.480708146E1
7.202030750E0,1.065079804E1,-1.052868128E1,4.921579488E-1,1.498448690E1
7.211999750E0,1.120012640E1,-1.013330893E1,7.178661740E-1,1.512091641E1
7.221967750E0,1.166466664E1,-9.404885019E0,1.233157901E0,1.503452654E1
7.231936750E0,1.209270621E1,-8.463702570E0,1.937595651E0,1.488697691E1
7.241905750E0,1.267333473E1,-7.740492625E0,2.703727959E0,1.509432953E1
7.251873750E0,1.295714571E1,-6.799089151E0,3.542955433E0,1.505548975E1
7.261842750E0,1.308369466E1,-5.658582137E0,4.214088321E0,1.486476230E1
7.271811750E0,1.309016636E1,-4.597739342E0,4.698276368E0,1.464805322E1
7.281779750E0,1.309325135E1,-3.424031838E0,4.996083248E0,1.442629796E1
7.291748750E0,1.316794602E1,-2.288176283E0,4.931144071E0,1.424593749E1
7.301716750E0,1.332894560E1,-1.342261682E0,4.688099582E0,1.419298189E1
7.311685750E0,1.316408452E1,-4.816269672E-1,4.345072383E0,1.387100356E1
7.321654750E0,1.262635118E1,-2.369759560E-2,3.832788757E0,1.319528610E1
7.331622750E0,1.194680298E1,2.479558575E-1,3.278996331E0,1.239110167E1
7.341591750E0,1.128036891E1,6.550319946E-1,3.021087928E0,1.169627129E1
7.351560750E0,1.083336916E1,8.615691000E-1,3.032704591E0,1.128279601E1
7.361528750E0,1.067209126E1,7.770195311E-1,3.178656649E0,1.116248849E1
7.371497750E0,1.066328184E1,6.688998359E-1,3.306315400E0,1.118412840E1
7.381466750E0,1.053108331E1,7.609221464E-1,3.617920246E0,1.116118565E1
7.391434750E0,1.038788266E1,9.119463712E-1,3.984317889E0,1.116308835E1
7.401403750E0,1.043681216E1,1.060738714E0,4.207506402E0,1.130289011E1
7.411372750E0,1.048569255E1,1.413612331E0,4.452465270E0,1.147922014E1
7.421340750E0,1.035633927E1,1.788039955E0,4.765826912E0,1.153966881E1
7.431309750E0,1.011013758E1,1.965944999E0,5.111016119E0,1.149792622E1
7.441278750E0,9.973847169E0,2.396936249E0,5.722089915E0,1.174586071E1
7.451246750E0,1.020315509E1,2.963510980E0,6.333825617E0,1.236948334E1
7.461215750E0,1.083305692E1,3.269850116E0,6.898771899E0,1.325292781E1
7.471183750E0,1.124359227E1,3.548963447E0,7.372639611E0,1.390572988E1
7.481152750E0,1.165769091E1,3.663226812E0,7.843617629E0,1.452044509E1
7.491121750E0,1.221557259E1,3.752336624E0,8.363195364E0,1.527230436E1
7.501089750E0,1.295908816E1,3.787542125E0,9.015560444E0,1.623464725E1
7.511058750E0,1.367353137E1,3.732493513E0,9.655403126E0,1.715003724E1
7.521027750E0,1.436262573E1,3.458098301E0,9.857940152E0,1.776013643E1
7.530995750E0,1.525919451E1,3.396611320E0,9.769184096E0,1.843412443E1
7.540964750E0,1.627880157E1,3.920069852E0,9.568141619E0,1.928511505E1
7.550933750E0,1.741709542E1,4.419384647E0,9.153769326E0,2.016625068E1
7.560901750E0,1.868012791E1,4.573658170E0,8.377643834E0,2.097737934E1
7.570870750E0,1.978567735E1,4.848408308E0,7.206810821E0,2.160829039E1
7.580839750E0,2.072148679E1,5.579178118E0,5.820292148E0,2.223472608E1
7.590807750E0,2.120405984E1,6.624768450E0,4.405776422E0,2.264752915E1
7.600776750E0,2.125265488E1,6.969267685E0,3.165712960E0,2.258910733E1
7.610745750E0,2.058913389E1,6.359280885E0,1.962110103E0,2.163799353E1
7.620713750E0,1.955023102E1,4.574567996E0,1.063100697E0,2.010642655E1
7.630682750E0,1.817509103E1,2.434115185E0,7.278801155E-1,1.835180264E1
7.640650750E0,1.662876094E1,5.014203769E-1,9.093920150E-1,1.666115562E1
7.650619750E0,1.543327197E1,-1.243440814E0,1.206044654E0,1.553018263E1
7.660588750E0,1.469797642E1,-2.618759145E0,1.434277853E0,1.499818533E1
7.670556750E0,1.423223400E1,-3.628811855E0,1.729418402E0,1.478903810E1
7.680525750E0,1.404314557E1,-4.638224294E0,1.929547251E0,1.491463089E1
7.690494750E0,1.413389669E1,-6.063939192E0,1.983355669E0,1.550716267E1
7.700462750E0,1.434728732E1,-7.518133539E0,1.920208663E0,1.631116754E1
7.710431750E0,1.442778594E1,-8.788348169E0,1.799823556E0,1.698927413E1
7.720400750E0,1.445922291E1,-1.006134140E1,1.726266753E0,1.769970945E1
7.730368750E0,1.437484408E1,-1.153332180E1,1.732551194E0,1.851095318E1
7.740337750E0,1.407699042E1,-1.269032323E1,1.748260177E0,1.903319144E1
7.750305750E0,1.460796789E1,-1.399966801E1,1.715328659E0,2.030580662E1
7.760274417E0,1.512550494E1,-1.583061600E1,1.797568724E0,2.196862663E1
7.770243417E0,1.522968829E1,-1.737005223E1,1.847382323E0,2.317487738E1
7.780211417E0,1.543489984E1,-1.834568355E1,2.372471791E0,2.409209124E1
7.790180417E0,1.627894892E1,-1.922575616E1,3.395903514E0,2.541979620E1
7.800149417E0,1.726597179E1,-1.992443879E1,4.931465667E0,2.682193872E1
7.810117417E0,1.674108244E1,-2.104238900E1,7.064834577E0,2.780211977E1
7.820086417E0,1.516351302E1,-2.252110540E1,8.891687765E0,2.856911666E1
7.830055417E0,1.312920003E1,-2.397143942E1,1.004023061E1,2.911721195E1
7.840023417E0,1.131651406E1,-2.516284469E1,1.026006370E1,2.943639160E1
7.849992417E0,1.040612831E1,-2.603060891E1,9.128867204E0,2.948247485E1
7.859961417E0,1.044173786E1,-2.659459391E1,7.815508894E0,2.962067680E1
7.869929417E0,1.076945207E1,-2.682744641E1,6.328794672E0,2.959301642E1
7.879898417E0,1.067892665E1,-2.684829992E1,4.660640180E0,2.926759727E1
7.889866417E0,1.035082769E1,-2.673972882E1,3.158671743E0,2.884666252E1
7.899835417E0,9.852200525E0,-2.701302300E1,2.301965772E0,2.884559435E1
7.909804417E0,8.908524823E0,-2.730673566E1,1.775599419E0,2.877798430E1
7.919772417E0,7.301489521E0,-2.699521472E1,1.446005321E0,2.800257664E1
7.929741417E0,5.678076754E0,-2.654928501E1,1.687944394E0,2.720210004E1
7.939710417E0,4.052928532E0,-2.572280914E1,1.963625994E0,2.611407603E1
7.949678417E0,2.725300092E0,-2.457140350E1,1.958644020E0,2.479954470E1
7.959647417E0,1.899732884E0,-2.372616743E1,1.692827404E0,2.386222267E1
7.969616417E0,1.470176541E0,-2.285732030E1,9.432696131E-1,2.292396711E1
7.979584417E0,1.428416896E0,-2.182781975E1,-4.025533158E-1,2.187821152E1
7.989553417E0,1.342119010E0,-2.071624301E1,-1.777907607E0,2.083566565E1
7.999522417E0,1.146088182E0,-1.969606994E1,-2.758783003E0,1.992133461E1
8.009490417E0,7.241992933E-1,-1.892814224E1,-3.602591186E0,1.928153771E1
8.019459417E0,1.144136381E-1,-1.805986931E1,-4.355507909E0,1.857800902E1
8.029427417E0,-2.844839984E-1,-1.705889849E1,-4.735099794E0,1.770616048E1
8.039396417E0,-3.633003724E-1,-1.604385928E1,-4.213272342E0,1.659183750E1
8.049365417E0,-3.129698789E-1,-1.509502458E1,-3.771454388E0,1.556218447E1
8.059333417E0,-3.186945954E-1,-1.401141156E1,-4.039712363E0,1.458562635E1
8.069302417E0,-5.771494210E-2,-1.315986517E1,-3.972503882E0,1.374649662E1
8.079271417E0,1.684088740E-1,-1.207582413E1,-3.303466052E0,1.252065406E1
8.089239417E0,5.161161840E-1,-1.086455236E1,-3.313420936E0,1.137029605E1
8.099208417E0,1.202484869E0,-9.614566757E0,-3.848071332E0,1.042561829E1
8.109177417E0,1.329806528E0,-8.057256178E0,-4.245994238E0,9.204141980E0
8.119145417E0,9.175503427E-1,-6.598515036E0,-4.622647312E0,8.108709360E0
8.129114417E0,3.145588598E-1,-5.421517303E0,-4.648720046E0,7.148593932E0
8.139083417E0,-1.636833005E-1,-4.497278915E0,-4.205030399E0,6.159106308E0
8.149051417E0,-3.840612039E-2,-3.745343939E0,-3.089320257E0,4.855200912E0
8.159020417E0,4.402924150E-1,-3.099752859E0,-1.235361424E0,3.365775252E0
8.168988417E0,6.347532660E-1,-2.607843563E0,1.897187591E-2,2.684049122E0
8.178957417E0,5.524107286E-1,-2.353093826E0,1.226242983E-1,2.420174556E0
8.188926417E0,2.950390998E-1,-2.177739921E0,-4.696004140E-1,2.247248047E0
8.198894417E0,-2.267959535E-1,-1.931042385E0,-1.379542360E0,2.384008854E0
8.208863417E0,-8.285565975E-1,-1.639193818E0,-2.463713205E0,3.073002630E0
8.218832417E0,-8.222353189E-1,-1.240808398E0,-3.437527796E0,3.745967665E0
8.228800417E0,-6.280332803E-1,-8.371049345E-1,-3.902076216E0,4.039971444E0
8.238769417E0,-3.974421915E-1,-5.503457844E-1,-3.767899573E0,3.828564741E0
8.248738417E0,-9.473819599E-2,-6.127630574E-1,-2.986627947E0,3.050311523E0
8.258706417E0,1.808989652E-1,-9.216527492E-1,-1.741710711E0,1.978818947E0
8.268675417E0,4.182642726E-1,-1.077750603E0,-3.742574698E-1,1.215137859E0
8.278644417E0,5.035957604E-1,-1.214836820E0,4.709686625E-1,1.396871028E0
8.288612417E0,5.815225536E-1,-1.109978701E0,6.227875239E-1,1.399316082E0
8.298581417E0,7.234976274E-1,-7.561689448E-1,1.593775570E-1,1.058603559E0
8.308549417E0,7.614147744E-1,-4.101307225E-1,-1.095637820E0,1.395844512E0
8.318518417E0,6.016923778E-1,-1.642342544E-1,-2.258412786E0,2.342954315E0
8.328487417E0,6.514810536E-1,1.627689421E-1,-2.667779862E0,2.750994490E0
8.338455417E0,6.848989874E-1,2.664652187E-1,-2.598775701E0,2.700689815E0
8.348424417E0,9.134926674E-1,3.446325517E-1,-2.337713310E0,2.533405606E0
8.358393417E0,1.145838067E0,5.826732856E-1,-2.053894724E0,2.423001563E0
8.368361417E0,9.967586993E-1,3.917850834E-1,-1.814437795E0,2.106942801E0
8.378330417E0,9.125324084E-1,1.189241803E-1,-1.143393200E0,1.467721488E0
8.388299417E0,9.044740681E-1,-3.623963928E-1,-2.139963984E-2,9.746088600E-1
8.398267417E0,1.385760874E0,-9.637398380E-1,1.855001099E0,2.508018491E0
8.408236417E0,2.371584914E0,5.347956991E-1,2.373523412E0,3.397651370E0
8.418204417E0,1.828745200E0,-1.112139832E0,2.594626517E0,3.363517619E0
8.428173417E0,1.844610597E0,-1.484982276E-1,5.492313051E-1,1.930361366E0
8.438142417E0,4.874253586E-1,-5.166248918E-1,4.682438600E-1,8.507273778E-1
8.448110417E0,8.964537348E-1,-2.082181799E-1,1.270897000E0,1.569128195E0
8.458079417E0,-8.894000924E-1,-8.081886989E-1,6.722859585E-1,1.377014854E0
8.468048417E0,-6.612341362E-1,-1.226123700E0,-4.681807101E-2,1.393844268E0
8.478016417E0,-2.845734608E-1,-6.908467752E-1,7.441494083E-1,1.054518688E0
8.487985417E0,-7.042918628E-1,-1.176962650E0,6.685180128E-1,1.525838930E0
8.497954417E0,-7.441693620E-1,-1.284744376E0,6.267443347E-1,1.611572093E0
8.507922417E0,-5.822447578E-1,-1.120552222E0,4.841441935E-1,1.352420733E0
8.517891417E0,-4.786304884E-1,-9.276695341E-1,3.657731599E-1,1.106095798E0
8.527860417E0,-2.927369048E-1,-7.319146943E-1,5.166055959E-1,9.424836110E-1
8.537828417E0,-2.410378705E-1,-4.083894217E-1,1.342169881E-1,4.928441687E-1
8.547797417E0,-2.094592515E-1,-4.959023595E-3,-3.693615961E-1,4.246478054E-1
8.557765417E0,3.714460554E-1,3.508031183E-1,-5.030774778E-1,7.170229763E-1
8.567734417E0,1.387671013E0,4.167234582E-1,-7.350780380E-1,1.624693510E0
8.577703417E0,-7.806162266E-1,1.123421450E0,-7.627634346E-1,1.566283980E0
8.587671417E0,-1.031447087E0,-5.081727415E-1,-5.347027284E-1,1.268081084E0
8.597640417E0,-1.511411983E0,-1.619696277E-1,4.922127664E-1,1.597771495E0
8.607609417E0,-9.951453795E-1,-1.398595512E-1,9.964982790E-1,1.415232787E0
8.617577417E0,-4.333971591E-1,-7.804337204E-2,7.979145563E-1,9.113679304E-1
8.627546417E0,-2.780424133E-1,1.088517666E-2,3.998068786E-1,4.871053385E-1
8.637515417E0,-3.663515957E-1,-1.632852513E-1,2.043134093E-2,4.016130036E-1
8.647483417E0,-5.314056297E-1,-3.582957405E-1,1.091458815E-1,6.501389116E-1
8.657452417E0,-8.956490848E-1,-6.311315006E-1,3.411522889E-1,1.147562259E0
8.667421417E0,-1.196937396E0,-8.788470376E-1,4.521271795E-1,1.552240391E0
8.677389417E0,-9.419208066E-1,-7.209564275E-1,6.341533417E-1,1.345044028E0
8.687358417E0,-3.539652195E-1,-2.797267038E-1,7.309978509E-1,8.590088844E-1
8.697326417E0,-9.366070032E-2,-6.892463923E-2,6.146733427E-1,6.255767346E-1
8.707295417E0,-3.224732854E-1,-1.935937089E-1,2.986535561E-1,4.802723087E-1
8.717264417E0,-2.707885037E-1,-1.386246192E-1,-1.072964072E-2,3.043982983E-1
8.727232417E0,-1.137951489E-1,-4.725368857E-2,-1.626110673E-2,1.242846354E-1
8.737201417E0,-2.722995704E-1,-2.240331441E-1,-3.166629803E-1,4.739339077E-1
8.747170417E0,-1.839183211E-1,-2.943903512E-1,-1.997239882E0,2.027180006E0
8.757138875E0,7.441305511E-1,2.627089673E-1,-2.335148721E0,2.464886575E0
8.767107875E0,1.116025600E0,2.100027502E-1,-5.196999425E-1,1.248880428E0
8.777076875E0,7.291992474E-1,-3.535986722E-1,6.677017415E-1,1.050042465E0
8.787044875E0,1.908083877E-1,-1.579175073E-1,1.044988069E0,1.073939404E0
8.797013875E0,-2.857315019E-2,-1.449197316E-1,1.231054657E0,1.239884560E0
8.806981875E0,-2.485418947E-1,-5.225188851E-2,1.292184373E0,1.316906902E0
8.816950875E0,-3.731913762E-1,8.723577976E-2,1.196323366E0,1.256213151E0
8.826919875E0,-6.859134793E-1,4.673328638E-2,2.198196405E-1,7.217908115E-1
8.836887875E0,-6.595178322E-1,-1.157795477E-1,-8.580607706E-1,1.088410291E0