"Time (s)","Linear Acceleration x (m/s^2)","Linear Acceleration y (m/s^2)","Linear Acceleration z (m/s^2)","Absolute acceleration (m/s^2)"
1.028808334E-2,-1.462239531E-1,6.062007272E-1,-1.462022014E0,1.589455610E0
2.025508333E-2,-1.035483420E-2,5.862973899E-1,-1.858532817E0,1.948844808E0
3.022208333E-2,5.231386900E-2,5.870212752E-1,-2.084836435E0,2.166534948E0
4.018908332E-2,6.296106398E-2,5.099450326E-1,-1.704079785E0,1.779858406E0
5.015708331E-2,-3.689862049E-1,2.288190901E-1,-1.738036906E0,1.791446700E0
6.012408336E-2,-4.513024297E-1,-1.274032277E-1,-1.307142136E0,1.388713803E0
7.009108335E-2,-1.131057914E0,-5.830738199E-1,-2.546486390E0,2.846727950E0
8.005808335E-2,-1.857220702E0,-1.134257510E0,-4.631077827E0,5.116902450E0
9.002508334E-2,-2.516626414E0,-1.597751092E0,-5.629103984E0,6.369696125E0
9.999208333E-2,-2.983296496E0,-2.263867654E0,-6.933558739E0,7.880316714E0
1.099600833E-1,-3.074967681E0,-2.740961859E0,-8.131726901E0,9.115551577E0
1.199270833E-1,-3.252416058E0,-3.727248561E0,-9.060461213E0,1.032291381E1
1.298940834E-1,-3.419812779E0,-4.389438717E0,-9.531107109E0,1.103649829E1
1.398610834E-1,-3.475047917E0,-5.066932206E0,-9.566795590E0,1.136984335E1
1.498280833E-1,-3.222817453E0,-5.918662196E0,-9.453073677E0,1.160938054E1
1.597950833E-1,-3.296891150E0,-6.897939255E0,-9.105502900E0,1.188954332E1
1.697630833E-1,-4.123337195E0,-7.995004966E0,-8.779959168E0,1.257019081E1
1.797300833E-1,-4.668621045E0,-9.180288203E0,-8.607092670E0,1.342221137E1
1.896970833E-1,-4.625410706E0,-1.033604826E1,-8.238958989E0,1.400388386E1
1.996640834E-1,-4.530408069E0,-1.152991171E1,-7.769225258E0,1.462273307E1
2.096310834E-1,-4.305789619E0,-1.244876189E1,-7.060853208E0,1.494547238E1
2.195980833E-1,-3.018209344E0,-1.349875108E1,-6.906352229E0,1.546038710E1
2.295660833E-1,-1.801575090E0,-1.452627293E1,-7.395963569E0,1.639995595E1
2.395330833E-1,-1.545047214E0,-1.564147846E1,-7.485585013E0,1.740910687E1
2.495000833E-1,-1.046732878E0,-1.715739367E1,-6.874265049E0,1.851289624E1
2.594670833E-1,-9.637948018E-1,-1.874067115E1,-6.644484676E0,1.990705484E1
2.694340834E-1,-1.206988687E0,-2.022670008E1,-6.266546384E0,2.120956910E1
2.794010834E-1,-7.984922612E-1,-2.186804626E1,-5.505987350E0,2.256468333E1
2.893690834E-1,8.875336611E-1,-2.302688488E1,-4.398160424E0,2.345994370E1
2.993354167E-1,3.144675263E0,-2.374326001E1,-2.932562837E0,2.412946960E1
3.093024167E-1,4.657358723E0,-2.451930949E1,-1.738377213E0,2.501818306E1
3.192694167E-1,5.548098997E0,-2.561987944E1,-1.281082265E0,2.624501470E1
3.292364167E-1,5.419854940E0,-2.695048119E1,-1.260317048E0,2.751893281E1
3.392034167E-1,5.188896938E0,-2.818344613E1,-1.147266980E0,2.868008906E1
3.491714167E-1,5.455838705E0,-2.941617250E1,-1.151864061E0,2.994000955E1
3.591384167E-1,6.547836049E0,-3.081804713E1,-9.936734891E-1,3.152163659E1
3.691054167E-1,8.913469813E0,-3.204855625E1,-3.053720069E-1,3.326639676E1
3.790724167E-1,1.072363446E1,-3.289911095E1,4.424962306E-1,3.460554349E1
3.890394167E-1,1.114345987E1,-3.397795030E1,1.567715700E0,3.579295373E1
3.990064167E-1,1.189199586E1,-3.518591957E1,2.892553264E0,3.725366245E1
4.089744167E-1,1.296873489E1,-3.649403760E1,4.035641824E0,3.893955919E1
4.189414167E-1,1.369379548E1,-3.787555223E1,4.447806208E0,4.051987748E1
4.289084167E-1,1.461953251E1,-3.944348310E1,4.740613718E0,4.233193249E1
4.388754167E-1,1.546477677E1,-4.090399595E1,5.142691655E0,4.403116490E1
4.488424167E-1,1.591313893E1,-4.173220493E1,6.013750201E0,4.506628574E1
4.588094167E-1,1.606734754E1,-4.279771731E1,7.076229047E0,4.625880761E1
4.687774167E-1,1.653722395E1,-4.419373303E1,7.869234281E0,4.783817162E1
4.787444167E-1,1.703021205E1,-4.495719697E1,8.421149458E0,4.880669462E1
4.887114167E-1,1.815508888E1,-4.535900359E1,8.480857716E0,4.958801676E1
4.986784167E-1,1.991496396E1,-4.512007233E1,8.782280513E0,5.009546055E1
5.086454167E-1,2.154804452E1,-4.415955723E1,9.246935937E0,4.999890540E1
5.186124167E-1,2.290481139E1,-4.291455404E1,9.828329852E0,4.962746619E1
5.285804167E-1,2.318343589E1,-4.168276556E1,1.093843544E1,4.893438478E1
5.385474167E-1,2.303586620E1,-4.013004913E1,1.270476000E1,4.798419429E1
5.485144167E-1,2.295299946E1,-3.816444444E1,1.472755280E1,4.690699111E1
5.584814167E-1,2.249570977E1,-3.623509249E1,1.603307000E1,4.556422082E1
5.684484167E-1,2.243436079E1,-3.386489088E1,1.651815618E1,4.385180568E1
5.784154167E-1,2.253499605E1,-3.128784051E1,1.601619493E1,4.175252700E1
5.883834167E-1,2.332760250E1,-2.856858117E1,1.564172638E1,4.006250707E1
5.983504167E-1,2.397781288E1,-2.512672527E1,1.593805625E1,3.821399574E1
6.083174167E-1,2.531807189E1,-2.197704537E1,1.607857420E1,3.718219784E1
6.182844167E-1,2.604525268E1,-1.792435775E1,1.626487701E1,3.555536545E1
6.282514167E-1,2.615453012E1,-1.437462188E1,1.727228444E1,3.448218395E1
6.382184167E-1,2.673608952E1,-1.121828318E1,2.010459151E1,3.528261554E1
6.481864167E-1,2.659099671E1,-7.912352818E0,2.305459834E1,3.607216292E1
6.581534166E-1,2.575508110E1,-5.305221446E0,2.467545588E1,3.606033416E1
6.681204167E-1,2.480355901E1,-3.454915661E0,2.583117442E1,3.597780641E1
6.780874167E-1,2.303385476E1,-2.164382834E0,2.597798397E1,3.478647251E1
6.880544167E-1,2.094890840E1,-6.144435471E-1,2.630880072E1,3.363610113E1
6.980214167E-1,2.000354928E1,1.156345221E0,2.691997743E1,3.355837158E1
7.079894167E-1,1.985282911E1,3.171299974E0,2.790542740E1,3.439338374E1
7.179564167E-1,1.971671529E1,4.828506140E0,2.892103028E1,3.533396844E1
7.279234166E-1,1.947197657E1,6.123997698E0,2.934005111E1,3.574212946E1
7.378904167E-1,2.002497816E1,7.278850272E0,2.932068981E1,3.624478256E1
7.478574167E-1,2.060397413E1,8.113951950E0,2.891195073E1,3.641786458E1
7.578244167E-1,2.035786716E1,8.828502168E0,2.759167048E1,3.540742134E1
7.677924167E-1,1.999907265E1,9.393719761E0,2.650874042E1,3.450968265E1
7.777594167E-1,1.992169528E1,9.335808352E0,2.585262669E1,3.394686387E1
7.877264167E-1,1.949589636E1,8.622738065E0,2.519673047E1,3.300479985E1
7.976934167E-1,1.896297177E1,7.437757713E0,2.400663732E1,3.148385575E1
8.076604167E-1,1.818126218E1,6.033957009E0,2.235032694E1,2.943644079E1
8.176274167E-1,1.719376569E1,4.377682890E0,2.069738691E1,2.726117222E1
8.275954167E-1,1.608611009E1,2.764536663E0,1.932400693E1,2.529471970E1
8.375624167E-1,1.543637567E1,1.368027438E0,1.846920715E1,2.410943396E1
8.475294167E-1,1.508447620E1,1.446636236E-1,1.800100890E1,2.348613785E1
8.574964167E-1,1.500024355E1,-8.445601344E-1,1.783991109E1,2.332344349E1
8.674634167E-1,1.507708649E1,-2.042576269E0,1.763078893E1,2.328809509E1
8.774304167E-1,1.528210975E1,-3.421072854E0,1.727963790E1,2.332021664E1
8.873984167E-1,1.577331563E1,-4.711841324E0,1.658428000E1,2.336744055E1
8.973654167E-1,1.580722714E1,-6.266143511E0,1.540135787E1,2.294198789E1
9.073324167E-1,1.606508467E1,-7.513514239E0,1.461369114E1,2.298042233E1
9.172994167E-1,1.711779165E1,-8.330443355E0,1.417034590E1,2.373212549E1
9.272664167E-1,1.888236322E1,-9.766772704E0,1.355651923E1,2.521334376E1
9.372334167E-1,2.079266845E1,-1.091883440E1,1.265253618E1,2.667663168E1
9.472014167E-1,2.257895541E1,-1.211745865E1,1.138570066E1,2.804061717E1
9.571684167E-1,2.387928496E1,-1.335916635E1,1.027445136E1,2.922758844E1
9.671354167E-1,2.390198619E1,-1.422051968E1,9.351394106E0,2.934240439E1
9.771024167E-1,2.430062362E1,-1.602324901E1,8.024842138E0,3.019375612E1
9.870694167E-1,2.470954280E1,-1.783835807E1,6.369047490E0,3.113411778E1
9.970364167E-1,2.487974823E1,-1.902312090E1,5.407967550E0,3.178249698E1
1.007004417E0,2.608608963E1,-2.068488322E1,4.837012085E0,3.364142019E1
1.016971417E0,2.797197807E1,-2.214325833E1,5.087956454E0,3.603668613E1
1.026938417E0,2.939177792E1,-2.438295242E1,5.474578446E0,3.857947624E1
1.036905417E0,3.028706850E1,-2.682129748E1,5.835331187E0,4.087468173E1
1.046872417E0,3.134511983E1,-2.927419743E1,6.451587371E0,4.337185899E1
1.056839417E0,3.267230681E1,-3.181621362E1,7.746226405E0,4.625748702E1
1.066807417E0,3.390934141E1,-3.445568185E1,8.570520090E0,4.909675408E1
1.076774417E0,3.506423667E1,-3.701239561E1,8.951101323E0,5.176427665E1
1.086741417E0,3.615839339E1,-3.904805462E1,9.226896944E0,5.401218020E1
1.096708417E0,3.648038552E1,-4.113309922E1,9.610514052E0,5.581319163E1
1.106675417E0,3.608837181E1,-4.297647839E1,1.002288777E1,5.700707460E1
1.116642417E0,3.540794068E1,-4.386180765E1,1.020531037E1,5.728637529E1
1.126610417E0,3.391618032E1,-4.488817175E1,9.839528439E0,5.711454780E1
1.136577417E0,3.154033030E1,-4.515911302E1,8.957307558E0,5.580655232E1
1.146544417E0,2.881849819E1,-4.464284597E1,8.034837953E0,5.374056341E1
1.156511417E0,2.667512411E1,-4.355039898E1,7.261770555E0,5.158423023E1
1.166478417E0,2.534980356E1,-4.240956511E1,6.734582083E0,4.986520178E1
1.176445417E0,2.413489716E1,-4.144277244E1,6.500753099E0,4.839686394E1
1.186413417E0,2.249567937E1,-3.977988979E1,6.024825997E0,4.609548514E1
1.196380417E0,2.078288022E1,-3.853928605E1,5.521157366E0,4.413261671E1
1.206347417E0,1.901823263E1,-3.740870351E1,5.807080364E0,4.236539217E1
1.216314417E0,1.763107661E1,-3.563215801E1,6.598249573E0,4.029940998E1
1.226281417E0,1.651291005E1,-3.403995418E1,7.302936122E0,3.853216260E1
1.236248417E0,1.480229893E1,-3.290291164E1,7.770529772E0,3.690651407E1
1.246216417E0,1.340872033E1,-3.143326076E1,7.351130043E0,3.495543986E1
1.256183417E0,1.218952207E1,-3.028905889E1,5.959379282E0,3.318924130E1
1.266150417E0,9.936313891E0,-3.014223998E1,4.146714071E0,3.200750229E1
1.276117417E0,7.310966688E0,-2.887295448E1,3.162627969E0,2.995162683E1
1.286084417E0,4.773207268E0,-2.811290298E1,3.010877520E0,2.867375464E1
1.296052083E0,2.287924268E0,-2.758443631E1,3.099030143E0,2.785210426E1
1.306020083E0,-2.334933543E-1,-2.649087132E1,2.948495915E0,2.665547619E1
1.315987083E0,-2.550071318E0,-2.543912095E1,2.554982979E0,2.569396187E1
1.325954083E0,-3.406058081E0,-2.415277093E1,2.367495664E0,2.450637898E1
1.335921083E0,-3.219149494E0,-2.300709322E1,1.770030823E0,2.329854655E1
1.345888083E0,-4.603669004E0,-2.238689777E1,7.949805696E-1,2.286917039E1
1.355855083E0,-6.551249653E0,-2.168121602E1,3.173916896E-1,2.265159460E1
1.365823083E0,-7.346276854E0,-2.069704309E1,7.724208422E-1,2.197571410E1
1.375790083E0,-6.725218352E0,-1.948056963E1,1.735996227E0,2.068175133E1
1.385757083E0,-6.650998474E0,-1.871018026E1,1.864858774E0,1.994453119E1
1.395724083E0,-7.249970289E0,-1.821138470E1,1.560271756E0,1.966344451E1
1.405691083E0,-7.551005416E0,-1.761723274E1,1.084140733E0,1.919791482E1
1.415658083E0,-8.271958920E0,-1.685721399E1,4.718808281E-1,1.878333409E1
1.425626083E0,-8.668346347E0,-1.633440041E1,-7.220665213E-1,1.850605969E1
1.435593083E0,-1.018469777E1,-1.649932697E1,-1.709655398E0,1.946480878E1
1.445560083E0,-1.209798742E1,-1.681079763E1,-4.273729920E-1,2.071586021E1
1.455527083E0,-1.274014501E1,-1.670871109E1,2.370181436E0,2.114497768E1
1.465494083E0,-1.363588583E1,-1.675923454E1,4.789519537E0,2.213026936E1
1.475461083E0,-1.486322224E1,-1.631010289E1,6.482895702E0,2.299919060E1
1.485429083E0,-1.587778549E1,-1.587818661E1,6.976189034E0,2.351357258E1
1.495396083E0,-1.695668916E1,-1.541041170E1,6.880833811E0,2.392396226E1
1.505363083E0,-1.734449522E1,-1.479549043E1,6.637037662E0,2.374422710E1
1.515330083E0,-1.701520459E1,-1.424167725E1,6.146276175E0,2.302431908E1
1.525297083E0,-1.650812119E1,-1.365579793E1,5.710665625E0,2.217229316E1
1.535264083E0,-1.553463579E1,-1.305453694E1,5.105426180E0,2.092393893E1
1.545232083E0,-1.422266210E1,-1.263144527E1,4.051806159E0,1.944877015E1
1.555199083E0,-1.330526437E1,-1.224897071E1,2.444186721E0,1.824942170E1
1.565166083E0,-1.264122182E1,-1.195216488E1,1.082790903E0,1.743063884E1
1.575133083E0,-1.179272651E1,-1.189293492E1,3.454394674E-1,1.675200370E1
1.585100083E0,-1.098409868E1,-1.243445960E1,3.955004042E-1,1.659586183E1
1.595067083E0,-1.066893727E1,-1.338041747E1,9.930957842E-1,1.714199619E1
1.605035083E0,-1.064902984E1,-1.429758365E1,1.664381869E0,1.790510826E1
1.615002083E0,-1.016701578E1,-1.523375328E1,2.085508865E0,1.843325246E1
1.624969083E0,-9.731328637E0,-1.600303753E1,2.720499820E0,1.892609538E1
1.634936083E0,-8.983449875E0,-1.648912475E1,3.378744568E0,1.907903356E1
1.644903083E0,-7.319867905E0,-1.671221006E1,3.611676589E0,1.859899565E1
1.654870083E0,-6.115757217E0,-1.713700209E1,3.154616991E0,1.846702292E1
1.664838083E0,-5.751983221E0,-1.771765166E1,2.410407503E0,1.878325200E1
1.674805083E0,-5.204876209E0,-1.845682742E1,1.423153964E0,1.922941970E1
1.684772083E0,-4.161786146E0,-1.950024668E1,8.173132789E-1,1.995615408E1
1.694739083E0,-3.354146501E0,-2.034192297E1,9.188209426E-1,2.063706280E1
1.704706083E0,-2.911523386E0,-2.101749390E1,1.319866408E0,2.125921131E1
1.714673083E0,-2.384872858E0,-2.196013523E1,1.654494081E0,2.215112883E1
1.724641083E0,-1.315430564E0,-2.287591679E1,1.860828434E0,2.298914111E1
1.734608083E0,-3.494342852E-1,-2.369429777E1,2.019043565E0,2.378273298E1
1.744575083E0,1.870945287E-1,-2.474570900E1,1.858655609E0,2.481611813E1
1.754542083E0,5.851606911E-1,-2.606796327E1,1.196684212E0,2.610197646E1
1.764509083E0,1.144124687E0,-2.766325911E1,5.060029860E-1,2.769153237E1
1.774476083E0,2.476274194E0,-2.937586648E1,-3.831492575E-1,2.948254176E1
1.784444083E0,4.569549916E0,-3.079930330E1,-1.111915957E0,3.115628712E1
1.794411083E0,7.029552478E0,-3.204955729E1,-1.239698596E0,3.283482272E1
1.804378083E0,9.636142983E0,-3.344661849E1,-8.557528015E-1,3.481757966E1
1.814345083E0,1.241923111E1,-3.548552622E1,-3.259121060E-1,3.759742133E1
1.824312083E0,1.474421854E1,-3.770700039E1,3.949232841E-1,4.048908276E1
1.834279083E0,1.663650850E1,-4.001367083E1,1.476642977E0,4.335951733E1
1.844247083E0,1.798437006E1,-4.172835045E1,2.291638420E0,4.549664168E1
1.854214083E0,1.957666044E1,-4.290911379E1,2.670853744E0,4.723950825E1
1.864181083E0,2.156583876E1,-4.357402641E1,2.565242504E0,4.868635998E1
1.874148083E0,2.351713181E1,-4.362243668E1,2.218868651E0,4.960741727E1
1.884115083E0,2.504851759E1,-4.343168647E1,2.434924439E0,5.019629946E1
1.894082083E0,2.697892906E1,-4.282675225E1,3.060964769E0,5.070860703E1
1.904050083E0,2.882177731E1,-4.131270229E1,3.365849118E0,5.048527665E1
1.914017083E0,2.966008326E1,-3.911889013E1,3.724026160E0,4.923288002E1
1.923984083E0,3.042925641E1,-3.702550039E1,4.069970827E0,4.809773370E1
1.933951083E0,3.142215807E1,-3.580557474E1,3.919566407E0,4.779910251E1
1.943918083E0,3.078779364E1,-3.384366782E1,4.501971306E0,4.597336005E1
1.953885083E0,2.946318178E1,-3.242557536E1,5.277930737E0,4.412882925E1
1.963853083E0,2.803121036E1,-3.121458425E1,6.593144953E0,4.246844222E1
1.973820083E0,2.695863688E1,-2.957996003E1,7.827572869E0,4.078005683E1
1.983787083E0,2.591855287E1,-2.794053174E1,8.774599611E0,3.910803364E1
1.993754083E0,2.486582251E1,-2.622089368E1,9.489282560E0,3.736162306E1
2.003721083E0,2.414614954E1,-2.448637563E1,1.014100269E1,3.585329922E1
2.013688083E0,2.376182843E1,-2.341128785E1,1.119179997E1,3.518478756E1
2.023656083E0,2.340323273E1,-2.202889848E1,1.252757534E1,3.449527235E1
2.033623083E0,2.295158443E1,-1.986294947E1,1.341105922E1,3.318385901E1
2.043590083E0,2.253540769E1,-1.793147147E1,1.356003458E1,3.183169500E1
2.053557083E0,2.202854531E1,-1.601522429E1,1.342690517E1,3.036488103E1
2.063524083E0,2.116705632E1,-1.407095375E1,1.326335387E1,2.866971518E1
2.073491083E0,2.032707338E1,-1.280356859E1,1.327258896E1,2.744599969E1
2.083459083E0,1.980763247E1,-1.174128855E1,1.386822260E1,2.687987647E1
2.093426083E0,1.934796882E1,-1.100675781E1,1.448679253E1,2.655861014E1
2.103393083E0,1.847562856E1,-1.081693965E1,1.492664582E1,2.609903810E1
2.113360083E0,1.717492246E1,-1.049408330E1,1.585535557E1,2.562217879E1
2.123327083E0,1.602679126E1,-1.015086811E1,1.690174639E1,2.540801433E1
2.133294083E0,1.486052550E1,-9.695843639E0,1.734673821E1,2.481438955E1
2.143262083E0,1.372936059E1,-8.923393123E0,1.836865960E1,2.460751800E1
2.153229083E0,1.270701001E1,-7.780482903E0,2.097160495E1,2.572571149E1
2.163196083E0,1.176781737E1,-6.320592198E0,2.336605379E1,2.691475211E1
2.173163083E0,1.128343753E1,-4.514783725E0,2.582579498E1,2.854244070E1
2.183130083E0,1.156710000E1,-2.847026258E0,2.835664767E1,3.075715897E1
2.193097083E0,1.233407811E1,-1.193335292E0,3.068061652E1,3.308857449E1
2.203065083E0,1.415301475E1,3.388669778E-1,3.262055427E1,3.556013524E1
2.213032083E0,1.629699226E1,1.981926902E0,3.387454112E1,3.764312058E1
2.222999083E0,1.778629680E1,3.264845777E0,3.482410322E1,3.923939012E1
2.232966083E0,1.841001228E1,4.392671642E0,3.486562079E1,3.967159726E1
2.242933083E0,1.829344920E1,5.299237406E0,3.492298899E1,3.977873000E1
2.252900083E0,1.869073125E1,5.657500402E0,3.524880520E1,4.029676183E1
2.262868083E0,1.931154183E1,5.706014165E0,3.435490860E1,3.982152672E1
2.272835083E0,1.949331540E1,5.125469266E0,3.280616361E1,3.850330052E1
2.282802083E0,1.934417514E1,4.046402163E0,3.117287255E1,3.690959856E1
2.292769083E0,1.909608363E1,2.337585986E0,2.926200014E1,3.501984252E1
2.302735292E0,1.816095363E1,5.207321222E-1,2.702249082E1,3.256234649E1
2.312702292E0,1.708564249E1,-1.506502076E0,2.450450668E1,2.991086049E1
2.322670292E0,1.594781291E1,-3.696882216E0,2.188876177E1,2.733345143E1
2.332637292E0,1.485031276E1,-5.620500391E0,1.995213588E1,2.549920665E1
2.342604292E0,1.431342960E1,-7.126523287E0,1.849746557E1,2.445031357E1
2.352571292E0,1.449354723E1,-8.351278154E0,1.719503454E1,2.398908024E1
2.362538292E0,1.521136078E1,-9.495130361E0,1.593935316E1,2.399178978E1
2.372505292E0,1.634048268E1,-1.041976636E1,1.494378284E1,2.447242429E1
2.382473292E0,1.778459292E1,-1.141223415E1,1.417149312E1,2.544331053E1
2.392440292E0,1.917007781E1,-1.267736229E1,1.332816207E1,2.656778692E1
2.402407292E0,2.022916527E1,-1.434403627E1,1.244785440E1,2.774742480E1
2.412374292E0,2.104431624E1,-1.592267106E1,1.164326232E1,2.884372128E1
2.422341292E0,2.185816914E1,-1.735085465E1,1.043370027E1,2.979419099E1
2.432308292E0,2.270690185E1,-1.883784603E1,9.133402889E0,3.088505922E1
2.442276292E0,2.381026910E1,-2.013843519E1,8.022138970E0,3.220000311E1
2.452243292E0,2.537577689E1,-2.157562934E1,7.481386712E0,3.413808696E1
2.462210292E0,2.713591277E1,-2.325505727E1,7.637414399E0,3.654429571E1
2.472177292E0,2.860010468E1,-2.523800480E1,8.127028078E0,3.899963409E1
2.482144292E0,2.969430116E1,-2.760467469E1,8.620162951E0,4.144968993E1
2.492111292E0,3.000050114E1,-3.003187262E1,8.926714926E0,4.337775560E1
2.502079292E0,2.969506130E1,-3.216619287E1,8.599897671E0,4.461411065E1
2.512046292E0,2.950454498E1,-3.421987300E1,8.144279119E0,4.591129671E1
2.522013292E0,2.978121184E1,-3.631430589E1,7.563599149E0,4.756950097E1
2.531980292E0,3.084709376E1,-3.831332859E1,6.413856457E0,4.960435360E1
2.541947292E0,3.217933741E1,-3.981757861E1,5.601833739E0,5.150077537E1
2.551914292E0,3.278853074E1,-4.143286491E1,4.875791988E0,5.306169419E1
2.561882292E0,3.273438787E1,-4.264649896E1,4.147732363E0,5.392093941E1
2.571849292E0,3.334889281E1,-4.438536266E1,3.503831128E0,5.562810353E1
2.581816292E0,3.243481162E1,-4.532603465E1,3.110324040E0,5.582240175E1
2.591783292E0,2.957850524E1,-4.566884521E1,2.927628372E0,5.448947057E1
2.601750292E0,2.654154096E1,-4.566911652E1,3.097226862E0,5.291232762E1
2.611717292E0,2.393826231E1,-4.514186607E1,3.352802226E0,5.120614961E1
2.621685292E0,2.098443140E1,-4.377735047E1,3.448976644E0,4.866927383E1
2.631652292E0,1.776864522E1,-4.194164284E1,3.462501254E0,4.568167108E1
2.641619292E0,1.460277790E1,-4.024428502E1,3.058422984E0,4.292082886E1
2.651586292E0,1.168494361E1,-3.777398609E1,2.586596535E0,3.962451784E1
2.661553292E0,9.261772077E0,-3.513455295E1,1.886666695E0,3.638374285E1
2.671520292E0,7.952029685E0,-3.242002752E1,1.003998502E0,3.339612213E1
2.681488292E0,7.320214645E0,-2.992948787E1,5.366106749E-1,3.081635504E1
2.691455292E0,6.712142808E0,-2.863602764E1,4.489117956E-1,2.941558195E1
2.701422292E0,5.050707936E0,-2.745991166E1,2.609031279E-2,2.792054942E1
2.711389292E0,2.651333399E0,-2.633662411E1,4.211866379E-2,2.646977734E1
2.721356292E0,3.266196191E-1,-2.497598405E1,4.525417836E-1,2.498221875E1
2.731323292E0,-1.379647025E0,-2.328141651E1,8.377422810E-1,2.333730046E1
2.741291292E0,-2.486611487E0,-2.213941086E1,2.332209910E0,2.240035609E1
2.751258292E0,-3.049204264E0,-2.242305695E1,3.499262699E0,2.289838355E1
2.761225292E0,-4.236390771E0,-2.199387366E1,4.151023761E0,2.277956285E1
2.771192292E0,-5.318104032E0,-2.137697136E1,4.252242572E0,2.243521121E1
2.781159292E0,-5.727212661E0,-2.083339314E1,3.695455495E0,2.192002797E1
2.791126292E0,-4.964370874E0,-1.970899462E1,2.649140693E0,2.049652150E1
2.801094292E0,-3.652208903E0,-1.873611851E1,1.450762177E0,1.914381042E1
2.811061292E0,-2.328430855E0,-1.773892967E1,4.521812662E-1,1.789680653E1
2.821028292E0,-2.376981456E0,-1.684573006E1,-1.187014014E-2,1.701260718E1
2.830995292E0,-3.926732755E0,-1.616645902E1,2.755887754E-1,1.663879733E1
2.840962292E0,-4.918698857E0,-1.570466464E1,8.772267741E-1,1.648027963E1
2.850929292E0,-5.750054224E0,-1.544950384E1,1.178624136E0,1.652693097E1
2.860897292E0,-6.668112105E0,-1.488171932E1,8.017298645E-1,1.632703463E1
2.870864292E0,-6.886700907E0,-1.310515394E1,6.112357646E-1,1.481706173E1
2.880831292E0,-5.854655650E0,-1.184653843E1,9.812405545E-1,1.325067163E1
2.890798292E0,-5.049548433E0,-1.065123307E1,1.642095499E0,1.190139416E1
2.900765292E0,-5.136926301E0,-9.438970193E0,3.272159182E0,1.123339645E1
2.910732292E0,-5.020405326E0,-8.916789277E0,4.370353113E0,1.112715539E1
2.920700292E0,-4.841117415E0,-7.969288327E0,4.673482712E0,1.043012056E1
2.930667292E0,-5.270297197E0,-7.553399851E0,4.562293229E0,1.027834624E1
2.940634292E0,-6.244522262E0,-7.331437790E0,3.794696778E0,1.035102710E1
2.950601292E0,-7.097523437E0,-6.723784030E0,3.502802019E0,1.038526517E1
2.960568292E0,-7.244034196E0,-6.441997352E0,2.884918847E0,1.011425321E1
2.970535292E0,-6.860450417E0,-6.135120272E0,2.035414599E0,9.425942566E0
2.980503292E0,-6.565232100E0,-5.836069690E0,1.648989658E0,8.937625459E0
2.990470292E0,-7.190901132E0,-5.680584040E0,6.943346393E-1,9.190222778E0
3.000437292E0,-8.054292809E0,-5.641662633E0,-3.991821036E-1,9.841714092E0
3.010404292E0,-9.197665544E0,-5.761992484E0,-5.788249406E-1,1.086888436E1
3.020371292E0,-1.007825388E1,-5.922831845E0,-4.162077338E-2,1.168986188E1
3.030338292E0,-1.015627328E1,-6.579513339E0,2.981860712E-1,1.210490800E1
3.040306292E0,-1.082492929E1,-7.472730494E0,5.224533963E-1,1.316410850E1
3.050273292E0,-1.189472534E1,-8.254987961E0,1.076198460E0,1.451852335E1
3.060240292E0,-1.273018604E1,-8.881824097E0,2.240856229E0,1.568329916E1
3.070207292E0,-1.287111095E1,-9.263516886E0,3.737884646E0,1.629263710E1
3.080174292E0,-1.254013515E1,-1.016492833E1,4.582721646E0,1.678040808E1
3.090141292E0,-1.246439851E1,-1.121007837E1,5.248423347E0,1.756624703E1
3.100109292E0,-1.189420494E1,-1.218460807E1,5.674968374E0,1.794831610E1
3.110076292E0,-1.119186780E1,-1.334039444E1,5.678898872E0,1.831594718E1
3.120043292E0,-1.102941577E1,-1.429677673E1,5.595802921E0,1.890393736E1
3.130010292E0,-1.067669535E1,-1.513940495E1,5.552931721E0,1.933981532E1
3.139977292E0,-9.865088958E0,-1.586405038E1,5.723161125E0,1.953823554E1
3.149944292E0,-8.646005305E0,-1.657301358E1,5.755561132E0,1.955874922E1
3.159912292E0,-8.153207232E0,-1.719378090E1,5.524511329E0,1.981466919E1
3.169879292E0,-7.693145381E0,-1.772070390E1,5.192222834E0,2.000417483E1
3.179846292E0,-7.121574204E0,-1.848429063E1,4.699659820E0,2.035860068E1
3.189813292E0,-6.427255937E0,-1.950427659E1,4.544662997E0,2.103284065E1
3.199780292E0,-5.692045167E0,-1.998286651E1,4.926944600E0,2.135390164E1
3.209747292E0,-4.502863006E0,-2.053445307E1,5.242587826E0,2.166620099E1
3.219715292E0,-2.738149348E0,-2.190935801E1,5.040919697E0,2.264792047E1
3.229682292E0,-2.146628056E0,-2.273447732E1,5.233166792E0,2.342755868E1
3.239649292E0,-2.309596388E0,-2.338352059E1,5.868538109E0,2.421906295E1
3.249616292E0,-1.621523532E0,-2.476456744E1,4.400764189E0,2.520475877E1
3.259583292E0,-1.164247879E0,-2.596010787E1,1.873283588E0,2.605363439E1
3.269550292E0,-1.094446158E0,-2.659126334E1,2.799222931E-1,2.661524854E1
3.279518292E0,-1.000016549E0,-2.763774420E1,-2.847409835E-1,2.765729588E1
3.289485292E0,-1.527959311E-1,-2.954373068E1,4.443673396E-1,2.954746743E1
3.299452667E0,1.382968828E0,-3.153592617E1,1.945499771E0,3.162613179E1
3.309419667E0,4.147256985E0,-3.356464337E1,3.158591051E0,3.396706821E1
3.319386667E0,6.786177914E0,-3.639057697E1,3.977867825E0,3.723103188E1
3.329353667E0,8.555286924E0,-3.910023517E1,2.984856241E0,4.013640108E1
3.339320667E0,1.106043876E1,-4.079289886E1,8.943640861E-1,4.227521484E1
3.349288667E0,1.385605572E1,-4.309912959E1,-1.153599223E0,4.528637811E1
3.359255667E0,1.728567574E1,-4.519536575E1,-3.914785724E0,4.854627914E1
3.369222667E0,2.077884798E1,-4.646678432E1,-5.550265975E0,5.120281263E1
3.379189667E0,2.415743467E1,-4.821577540E1,-4.854333876E0,5.414708861E1
3.389156667E0,2.714563084E1,-4.932265800E1,-3.549449351E0,5.641106680E1
3.399124667E0,2.980704484E1,-4.960764194E1,-2.344797650E0,5.792129260E1
3.409091667E0,3.079460682E1,-4.943199626E1,-1.774181908E0,5.826643789E1
3.419058667E0,3.116866957E1,-4.904014393E1,-1.904535056E0,5.813818826E1
3.429025667E0,3.173796618E1,-4.866288626E1,-2.195828283E0,5.813945870E1
3.438992667E0,3.238290939E1,-4.828948774E1,-2.286560551E0,5.818724780E1
3.448959667E0,3.242553326E1,-4.777523214E1,-1.606303522E0,5.776216949E1
3.458927667E0,3.333020511E1,-4.695525604E1,-8.847034626E-1,5.758889947E1
3.468894667E0,3.435130905E1,-4.616551239E1,6.834316286E-1,5.754766760E1
3.478861667E0,3.414986780E1,-4.562036010E1,2.919798950E0,5.706098450E1
3.488828667E0,3.370970344E1,-4.449760114E1,5.780240475E0,5.612300591E1
3.498795667E0,3.282507350E1,-4.298568892E1,7.223630921E0,5.456588446E1
3.508762667E0,3.168110084E1,-4.166288970E1,7.777695535E0,5.291484741E1
3.518729667E0,3.019708453E1,-4.019148700E1,9.651978412E0,5.118964962E1
3.528697667E0,2.878290969E1,-3.860645652E1,1.230916312E1,4.970341912E1
3.538664667E0,2.858557552E1,-3.752135831E1,1.401723538E1,4.920843774E1
3.548631667E0,2.832049551E1,-3.696836374E1,1.439359376E1,4.874306027E1
3.558598667E0,2.738500649E1,-3.628209241E1,1.389610680E1,4.753346815E1
3.568565667E0,2.638266509E1,-3.634091774E1,1.288090153E1,4.671857172E1
3.578532667E0,2.522634311E1,-3.596618138E1,1.271219883E1,4.573329847E1
3.588500667E0,2.386907338E1,-3.524353101E1,1.270293099E1,4.442075639E1
3.598467667E0,2.280016494E1,-3.513647551E1,1.267414632E1,4.376132331E1
3.608434667E0,2.171419198E1,-3.525544530E1,1.427686579E1,4.379819007E1
3.618401667E0,2.035473773E1,-3.458298743E1,1.632770067E1,4.332311366E1
3.628368667E0,1.833477381E1,-3.424685439E1,1.815848611E1,4.288055019E1
3.638335667E0,1.626925307E1,-3.203535089E1,2.287573669E1,4.259403282E1
3.648303667E0,1.615628253E1,-2.917739093E1,2.730352671E1,4.310253098E1
3.658270667E0,1.666897926E1,-2.654830969E1,3.040477295E1,4.367056028E1
3.668237667E0,1.636798681E1,-2.228205018E1,3.441834153E1,4.414774044E1
3.678204667E0,1.657857078E1,-1.682466137E1,3.823645641E1,4.494379644E1
3.688171667E0,1.784346152E1,-1.185232718E1,3.932438702E1,4.478028799E1
3.698138667E0,1.987404047E1,-7.392452316E0,3.817350295E1,4.366740390E1
3.708106667E0,2.220941139E1,-1.102098117E0,3.600090916E1,4.231474961E1
3.718073667E0,2.263337194E1,3.450931661E0,3.543094597E1,4.218448040E1
3.728040667E0,2.121059936E1,5.632722241E0,3.565545800E1,4.186799219E1
3.738007667E0,1.972561943E1,7.330561877E0,3.663134894E1,4.224562609E1
3.747974667E0,1.704764728E1,7.632157753E0,3.759954260E1,4.198330279E1
3.757941667E0,1.455827942E1,8.851329698E0,3.756894997E1,4.125185497E1
3.767909667E0,1.389366618E1,9.479968531E0,3.776138885E1,4.133795170E1
3.777876667E0,1.302797654E1,9.071869715E0,3.795304187E1,4.113952333E1
3.787843667E0,1.165932345E1,8.700035917E0,3.725733547E1,3.999674355E1
3.797810667E0,1.022152470E1,7.986213677E0,3.692558317E1,3.913767837E1
3.807777667E0,9.294782533E0,6.825641942E0,3.660741979E1,3.838079668E1
3.817744667E0,9.715042972E0,4.726436559E0,3.681459132E1,3.836711348E1
3.827712667E0,1.112148252E1,2.578882011E0,3.759977181E1,3.929479413E1
3.837679667E0,1.230282942E1,1.164582340E0,3.670684351E1,3.873123060E1
3.847646667E0,1.272301267E1,-5.588270245E-1,3.343644434E1,3.577964713E1
3.857613667E0,1.341111301E1,-2.685725844E0,2.989686041E1,3.287694234E1
3.867580667E0,1.466709844E1,-5.041779238E0,2.740734519E1,3.149136207E1
3.877547667E0,1.517369770E1,-7.368734255E0,2.601457585E1,3.100479806E1
3.887515667E0,1.573768737E1,-1.019706346E1,2.566602332E1,3.178678436E1
3.897482667E0,1.599585130E1,-1.321115928E1,2.529361416E1,3.271343616E1
3.907449667E0,1.596529492E1,-1.580431289E1,2.490697287E1,3.354138109E1
3.917416667E0,1.627393552E1,-1.806208657E1,2.428777612E1,3.436533162E1
3.927383667E0,1.635175494E1,-2.005953754E1,2.284016925E1,3.451721697E1
3.937350667E0,1.679042476E1,-2.170163216E1,2.125134510E1,3.470589101E1
3.947318667E0,1.801167071E1,-2.219808416E1,1.967565848E1,3.470312318E1
3.957285667E0,1.979012591E1,-2.227695842E1,1.842735863E1,3.503540361E1
3.967252667E0,2.204900355E1,-2.214681109E1,1.662251027E1,3.539700053E1
3.977219667E0,2.348827463E1,-2.263133945E1,1.486128798E1,3.584319253E1
3.987186667E0,2.418575624E1,-2.264481143E1,1.433276985E1,3.609939863E1
3.997153667E0,2.505595525E1,-2.453131499E1,1.280988358E1,3.733201610E1
4.007121667E0,2.570352035E1,-2.805081257E1,1.164343657E1,3.978804669E1
4.017088667E0,2.667642920E1,-3.053040389E1,1.215534626E1,4.232599531E1
4.027055667E0,2.758755404E1,-3.154155587E1,1.307540565E1,4.389657296E1
4.037022667E0,2.887945424E1,-3.284651875E1,1.208791617E1,4.537658415E1
4.046989667E0,2.984382382E1,-3.452927491E1,1.045957303E1,4.682229506E1
4.056956667E0,3.006001410E1,-3.492054251E1,9.208412726E0,4.698769628E1
4.066924667E0,3.098875075E1,-3.518402507E1,7.963499583E0,4.755665693E1
4.076891667E0,3.368957966E1,-3.669963272E1,7.018724020E0,5.031017100E1
4.086858667E0,3.726139344E1,-3.918279084E1,6.789675719E0,5.449589191E1
4.096825667E0,4.088733840E1,-4.221566208E1,7.428043733E0,5.923776161E1
4.106792667E0,4.413980299E1,-4.520063293E1,8.224907545E0,6.371081956E1
4.116759667E0,4.697663814E1,-4.751403000E1,7.840411016E0,6.727450946E1
4.126727667E0,4.902363140E1,-5.026911640E1,5.625509115E0,7.044108781E1
4.136694667E0,4.982069109E1,-5.300268971E1,3.066247144E0,7.280651241E1
4.146661667E0,4.943577590E1,-5.575791176E1,8.321499308E-1,7.452203122E1
4.156628667E0,4.822228219E1,-5.763762787E1,-3.324434459E-1,7.515048346E1
4.166595667E0,4.586856271E1,-5.843908000E1,7.422350299E-1,7.429402418E1
4.176562667E0,4.153819900E1,-5.789874581E1,1.599332179E0,7.127583466E1
4.186530667E0,3.574534374E1,-5.716235215E1,2.010794313E0,6.744855370E1
4.196497667E0,2.988443624E1,-5.487984708E1,1.526815596E0,6.250766602E1
4.206464667E0,2.564309990E1,-5.223295289E1,9.323712071E-1,5.819552608E1
4.216431667E0,2.264176153E1,-4.952310524E1,9.477213176E-1,5.446178011E1
4.226398667E0,2.027891805E1,-4.546724257E1,8.610826117E-1,4.979202876E1
4.236365667E0,1.858552464E1,-4.192443799E1,1.421254642E0,4.588137086E1
4.246333667E0,1.735291521E1,-3.840410778E1,2.566402591E0,4.222067719E1
4.256300667E0,1.608802915E1,-3.590435760E1,2.672110895E0,3.943460096E1
4.266267667E0,1.412494928E1,-3.507526686E1,2.705983815E0,3.790924539E1
4.276234667E0,1.297985981E1,-3.390503084E1,2.842997527E0,3.641580031E1
4.286201667E0,1.238514184E1,-3.362921067E1,2.750565326E0,3.594274834E1
4.296168667E0,1.048295020E1,-3.329008151E1,2.639899753E0,3.500129773E1
4.306136417E0,8.331926209E0,-3.225768542E1,2.235509827E0,3.339126783E1
4.316103417E0,6.805909928E0,-3.127350313E1,2.058652604E0,3.207164571E1
4.326070417E0,5.032969238E0,-3.004212863E1,2.124734327E0,3.053481240E1
4.336037417E0,3.566439605E0,-2.866032866E1,2.195353343E0,2.896469415E1
4.346004417E0,2.006692199E0,-2.721899235E1,2.562776148E0,2.741291994E1
4.355971417E0,1.100822839E0,-2.549725631E1,2.776373767E0,2.567158237E1
4.365939417E0,-4.489498025E-1,-2.503268567E1,2.639255390E0,2.517543598E1
4.375906417E0,-2.170398742E0,-2.437871202E1,2.545439154E0,2.460714309E1
4.385873417E0,-1.863504705E0,-2.308338068E1,2.584396813E0,2.330223637E1
4.395840417E0,-9.103655764E-1,-2.219081490E1,2.223268096E0,2.232048280E1
4.405807417E0,-2.294769896E0,-2.181881270E1,1.316106209E0,2.197859623E1
4.415774417E0,-4.908817062E0,-2.233645501E1,-5.676360011E-2,2.286956339E1
4.425742417E0,-7.498875149E0,-2.309585629E1,-1.068220811E0,2.430622970E1
4.435709417E0,-1.076034679E1,-2.312341071E1,-8.248211038E-1,2.551778823E1
4.445676417E0,-1.409178855E1,-2.267943865E1,9.462055001E-1,2.671761117E1
4.455643417E0,-1.559458262E1,-2.199164470E1,2.629167774E0,2.708756111E1
4.465610417E0,-1.514831376E1,-1.993088008E1,4.072747085E0,2.536333298E1
4.475577417E0,-1.301072141E1,-1.741466648E1,6.024241276E0,2.255750348E1
4.485545417E0,-1.143966578E1,-1.528561340E1,7.037471362E0,2.034802038E1
4.495512417E0,-1.119713029E1,-1.297248647E1,5.944895729E0,1.813843756E1
4.505479417E0,-1.145375289E1,-1.072889696E1,3.643150689E0,1.611118345E1
4.515446417E0,-1.169439856E1,-9.238068634E0,1.630708339E0,1.499200052E1
4.525413417E0,-1.227912246E1,-8.104490570E0,9.251844674E-1,1.474162753E1
4.535380417E0,-1.272154853E1,-8.053253759E0,1.383978350E0,1.511979131E1
4.545348417E0,-1.301570441E1,-8.756092588E0,2.540674258E0,1.589127888E1
4.555315417E0,-1.356542454E1,-9.221684151E0,3.968998184E0,1.687640803E1
4.565282417E0,-1.387973226E1,-9.740811651E0,4.876081133E0,1.764388128E1
4.575249417E0,-1.457941359E1,-1.090097116E1,5.627300118E0,1.905405415E1
4.585216417E0,-1.604872767E1,-1.159352240E1,6.693044048E0,2.089900141E1
4.595183417E0,-1.699467268E1,-1.205331235E1,7.452031935E0,2.212767539E1
4.605151417E0,-1.607204169E1,-1.276635223E1,8.064193314E0,2.205269796E1
4.615118417E0,-1.414088528E1,-1.313630557E1,8.862109625E0,2.123827082E1
4.625085417E0,-1.177806754E1,-1.337441939E1,9.586217117E0,2.023594642E1
4.635052417E0,-9.427036611E0,-1.380099482E1,9.462288305E0,1.920602451E1
4.645019417E0,-8.154928068E0,-1.448871042E1,8.883974118E0,1.885074474E1
4.654986417E0,-7.019912758E0,-1.483036323E1,8.246373843E0,1.836359252E1
4.664954417E0,-5.809984676E0,-1.528342888E1,7.448180375E0,1.796703958E1
4.674921417E0,-4.671537636E0,-1.631931927E1,6.431894533E0,1.815248503E1
4.684888417E0,-4.042082532E0,-1.697528565E1,5.917872237E0,1.842606756E1
4.694855417E0,-3.074840212E0,-1.739141328E1,5.492080332E0,1.849537360E1
4.704822417E0,-1.977824787E0,-1.848191900E1,4.793663751E0,1.919563317E1
4.714789417E0,-1.475137904E0,-1.995098047E1,4.568319077E0,2.052040918E1
4.724757417E0,-1.172495962E0,-2.095328211E1,4.452399488E0,2.145317318E1
4.734724417E0,-1.736987330E0,-2.180164995E1,4.421322707E0,2.231316114E1
4.744691417E0,-2.711092528E0,-2.297237246E1,4.749539200E0,2.361436092E1
4.754658417E0,-2.796151974E0,-2.379622409E1,5.180961682E0,2.451369231E1
4.764625417E0,-2.108877262E0,-2.402186814E1,4.610332198E0,2.455102188E1
4.774592417E0,-4.017580944E-1,-2.407530234E1,3.188313618E0,2.428882327E1
4.784560417E0,1.493457815E0,-2.452551455E1,2.250178445E0,2.467376306E1
4.794527417E0,2.951387948E0,-2.524264983E1,1.978239063E0,2.549147879E1
4.804494417E0,4.334773682E0,-2.622758758E1,1.941773487E0,2.665421350E1
4.814461417E0,4.756825708E0,-2.843454428E1,1.940590011E0,2.889492324E1
4.824428417E0,4.341257075E0,-3.141940520E1,2.165663667E0,3.179175420E1
4.834395417E0,5.387865407E0,-3.428719784E1,2.367016631E0,3.478855842E1
4.844363417E0,7.755589551E0,-3.778469585E1,1.324592127E0,3.859516750E1
4.854330417E0,1.023781504E1,-4.117144760E1,-9.058503565E-1,4.243490920E1
4.864297417E0,1.371510624E1,-4.336935515E1,-3.607901919E0,4.562917994E1
4.874264417E0,1.641027388E1,-4.473427304E1,-5.388767048E0,4.795300912E1
4.884231417E0,1.795787633E1,-4.613300187E1,-5.699999135E0,4.983200953E1
4.894198417E0,1.952314906E1,-4.784747566E1,-5.500330753E0,5.196910539E1
4.904166417E0,2.175753388E1,-4.931319955E1,-4.187220365E0,5.406213781E1
4.914133417E0,2.495022823E1,-5.083177759E1,-2.268758265E0,5.667036938E1
4.924100417E0,2.842620849E1,-5.173165472E1,-3.062911892E-1,5.902802083E1
4.934067417E0,3.080947979E1,-5.179559052E1,1.845083052E0,6.029437431E1
4.944034417E0,3.211522386E1,-5.091517292E1,3.013408195E0,6.027290490E1
4.954001417E0,3.359882619E1,-4.988290546E1,1.699152921E0,6.016703832E1
4.963969417E0,3.581032268E1,-4.824617625E1,-2.983027232E-1,6.008462130E1
4.973936417E0,3.764838088E1,-4.610414469E1,-2.285528079E0,5.956690674E1
4.983903417E0,3.856984594E1,-4.359941268E1,-1.944131377E0,5.824363869E1
4.993870417E0,3.816268326E1,-4.156637790E1,-6.480615288E-2,5.642834718E1
5.003837417E0,3.632417599E1,-4.088810088E1,2.835376266E0,5.476606535E1
5.013804417E0,3.381346812E1,-4.057242608E1,7.164520833E0,5.329918145E1
5.023772417E0,3.165436737E1,-3.984214627E1,1.074598954E1,5.200838283E1
5.033739417E0,3.027634938E1,-3.880604538E1,1.286644370E1,5.087348881E1
5.043706417E0,2.901783679E1,-3.693710920E1,1.473564301E1,4.922930085E1
5.053673417E0,2.772314863E1,-3.502673029E1,1.517878360E1,4.717881173E1
5.063640417E0,2.804219377E1,-3.333764978E1,1.379145568E1,4.569428601E1
5.073607417E0,2.883100421E1,-3.109982212E1,1.314514422E1,4.439842966E1
5.083575417E0,2.912008821E1,-3.039385269E1,1.275609856E1,4.398276787E1
5.093542417E0,2.778858599E1,-2.973524805E1,1.358283170E1,4.290552185E1
5.103509417E0,2.509923400E1,-2.862951150E1,1.614567451E1,4.135581315E1
5.113476417E0,2.221398157E1,-2.858948614E1,1.810604594E1,4.048022473E1
5.123443417E0,1.891752721E1,-2.841100339E1,1.976556293E1,3.944281211E1
5.133410417E0,1.735054241E1,-2.705300627E1,2.137774085E1,3.859940769E1
5.143378417E0,1.701814808E1,-2.628924530E1,2.226176735E1,3.842301482E1
5.153345417E0,1.599759026E1,-2.461747021E1,2.185078995E1,3.659781080E1
5.163312417E0,1.526073467E1,-2.037672092E1,2.283783738E1,3.420040342E1
5.173279417E0,1.483095263E1,-1.776654490E1,2.564505053E1,3.454382565E1
5.183246417E0,1.548960054E1,-1.497474267E1,2.909113982E1,3.620034612E1
5.193213417E0,1.656291661E1,-1.183301967E1,3.127608293E1,3.731680485E1
5.203181417E0,1.744438086E1,-9.469742920E0,3.039440467E1,3.630154666E1
5.213148417E0,1.815770141E1,-6.507104344E0,2.831794612E1,3.426296251E1
5.223115417E0,1.918472625E1,-3.935679579E0,2.701860359E1,3.336987017E1
5.233082417E0,2.131369279E1,3.525358311E-1,2.742044530E1,3.473152174E1
5.243049417E0,2.504092790E1,5.441407776E0,3.147230145E1,4.058525283E1
5.253016417E0,2.918470696E1,8.829710788E0,3.722114822E1,4.811574366E1
5.262984417E0,3.312167936E1,1.250836957E1,4.247211628E1,5.529363087E1
5.272951417E0,3.400449198E1,1.536617868E1,4.467870578E1,5.821178293E1
5.282918417E0,3.198938242E1,1.561998292E1,4.319348961E1,5.597304708E1
5.292885417E0,2.920897993E1,1.392611121E1,3.964436069E1,5.117398183E1
5.302852667E0,2.697548856E1,1.195686838E1,3.551414483E1,4.617248279E1
5.312819667E0,2.544397882E1,9.873980234E0,3.238552661E1,4.235225941E1
5.322787667E0,2.448832860E1,7.582293282E0,3.008199729E1,3.952335980E1
5.332754667E0,2.343045970E1,5.431566328E0,2.884474283E1,3.755672435E1
5.342721667E0,2.237314044E1,2.928385879E0,2.754346136E1,3.560582987E1
5.352688667E0,2.164016857E1,2.328222401E-1,2.562020454E1,3.353723278E1
5.362655667E0,2.092490207E1,-2.070229214E0,2.338615418E1,3.144915870E1
5.372622667E0,2.034045649E1,-3.722145696E0,2.131287418E1,2.969557450E1
5.382590667E0,2.055054695E1,-5.207672932E0,1.937504844E1,2.871998154E1
5.392557667E0,2.163966805E1,-6.787875946E0,1.816747094E1,2.905869050E1
5.402524667E0,2.304600761E1,-8.413744544E0,1.801693320E1,3.043878194E1
5.412491667E0,2.410721878E1,-1.030285011E1,1.739168342E1,3.146072742E1
5.422458667E0,2.481266430E1,-1.254223314E1,1.632887362E1,3.224295327E1
5.432425667E0,2.577705727E1,-1.472804397E1,1.532021021E1,3.340779552E1
5.442393667E0,2.718549949E1,-1.681437027E1,1.450154622E1,3.510084434E1
5.452360667E0,2.849963548E1,-1.906568513E1,1.337100462E1,3.680371362E1
5.462327667E0,2.885962282E1,-2.108464566E1,1.190638819E1,3.767230006E1
5.472294667E0,2.869109204E1,-2.212399994E1,1.028543944E1,3.766218793E1
5.482261667E0,2.859907089E1,-2.318377503E1,8.671763459E0,3.782319080E1
5.492228667E0,2.873853868E1,-2.461684806E1,7.486192539E0,3.857377209E1
5.502196667E0,2.930135424E1,-2.615337705E1,6.723853027E0,3.984694080E1
5.512163667E0,3.012014219E1,-2.825955583E1,6.401490766E0,4.179479088E1
5.522130667E0,3.094993927E1,-3.071946074E1,6.778982331E0,4.413092578E1
5.532097667E0,3.187159377E1,-3.322148900E1,7.296246323E0,4.661224122E1
5.542064667E0,3.300883746E1,-3.551888809E1,8.083017840E0,4.915800992E1
5.552031667E0,3.422208091E1,-3.749074229E1,8.862686745E0,5.152915481E1
5.561999667E0,3.554379489E1,-3.932661831E1,9.372701944E0,5.383114159E1
5.571966667E0,3.703983776E1,-4.109156528E1,9.370460122E0,5.610946303E1
5.581933667E0,3.858162223E1,-4.335028387E1,8.167218915E0,5.860454036E1
5.591900667E0,4.002795207E1,-4.604619644E1,6.431043763E0,6.135020357E1
5.601867667E0,4.130192471E1,-4.799788008E1,5.104518692E0,6.352717204E1
5.611834667E0,4.195747710E1,-4.865774071E1,4.062633741E0,6.437787359E1
5.621801667E0,4.209680923E1,-4.853142682E1,3.780665799E0,6.435630638E1
5.631769667E0,4.125567557E1,-4.845339689E1,4.554441880E0,6.380051236E1
5.641736667E0,3.922152514E1,-4.877100361E1,6.045932107E0,6.287680115E1
5.651703667E0,3.624258862E1,-4.913598214E1,6.533951250E0,6.140490607E1
5.661670667E0,3.238918696E1,-4.847993857E1,6.013226291E0,5.861333267E1
5.671637667E0,2.872798329E1,-4.733977830E1,5.021557227E0,5.560186751E1
5.681604667E0,2.538161709E1,-4.630541521E1,3.681742020E0,5.293366781E1
5.691572667E0,2.164147601E1,-4.471707287E1,2.741010976E0,4.975422827E1
5.701539667E0,1.842430404E1,-4.227397051E1,3.270249481E0,4.623027248E1
5.711506667E0,1.655789152E1,-3.964069799E1,4.019598234E0,4.314748983E1
5.721473667E0,1.500060725E1,-3.767606394E1,3.717260932E0,4.072250042E1
5.731440667E0,1.244489571E1,-3.549457303E1,3.410188555E0,3.776730768E1
5.741408667E0,9.695601565E0,-3.354853546E1,2.980022932E0,3.504838738E1
5.751375667E0,7.065116998E0,-3.202767935E1,2.564836707E0,3.289781923E1
5.761342667E0,4.184806049E0,-3.053836779E1,2.728743517E0,3.094431370E1
5.771309667E0,2.468348878E0,-2.873620681E1,3.276705977E0,2.902755812E1
5.781276667E0,1.676863335E0,-2.802458430E1,3.136248840E0,2.824934074E1
5.791243667E0,-6.521791381E-1,-2.776902355E1,2.557094117E0,2.789413445E1
5.801211667E0,-2.947240518E0,-2.690088276E1,2.041051315E0,2.713871056E1
5.811178667E0,-4.687871248E0,-2.587319485E1,2.256555418E0,2.639110439E1
5.821145667E0,-5.349365001E0,-2.408691725E1,3.218682302E0,2.488282950E1
5.831112667E0,-4.263860405E0,-2.265227950E1,4.066825902E0,2.340609632E1
5.841079667E0,-4.281305573E0,-2.232880919E1,4.542482862E0,2.318489698E1
5.851046667E0,-5.091053140E0,-2.187107745E1,4.673244438E0,2.293691489E1
5.861013667E0,-5.122046891E0,-2.159713072E1,4.964237557E0,2.274456142E1
5.870981667E0,-5.013652961E0,-2.097553428E1,5.171993222E0,2.217790044E1
5.880948667E0,-3.861031393E0,-2.020201313E1,5.063812131E0,2.118185760E1
5.890915667E0,-3.477748454E0,-1.939400979E1,5.040536120E0,2.033787979E1
5.900882667E0,-3.071792935E0,-1.850041374E1,5.139144149E0,1.944510280E1
5.910849667E0,-3.221698588E0,-1.735552073E1,5.803997127E0,1.858170671E1
5.920816667E0,-3.119732795E0,-1.485176170E1,6.630953050E0,1.656131325E1
5.930784667E0,-3.414601156E0,-1.056987140E1,7.468581310E0,1.338511820E1
5.940751667E0,-3.423488924E0,-6.921379573E0,9.652575998E0,1.236114861E1
5.950718667E0,-2.262862810E0,-3.182454123E0,1.436524646E1,1.488653311E1
5.960685667E0,9.150307775E-3,-3.194819230E-1,1.926508687E1,1.926773792E1
5.970652667E0,1.339533371E0,-3.721665055E-1,2.243757442E1,2.248060505E1
5.980619667E0,2.733599630E-1,-2.516236405E0,2.053591722E1,2.069130414E1
5.990587667E0,-3.848253473E0,-4.192515603E0,1.509650977E1,1.613353183E1
6.000554667E0,-8.433511641E0,-5.718726597E0,1.013886027E1,1.437443704E1
6.010521667E0,-1.235367446E1,-7.010173051E0,6.676716283E0,1.569504187E1
6.020488667E0,-1.519273857E1,-8.338248219E0,5.592019188E0,1.821033682E1
6.030455667E0,-1.704494470E1,-8.978124815E0,6.412924411E0,2.030424745E1
6.040422667E0,-1.812076689E1,-8.711983532E0,7.431791214E0,2.143577315E1
6.050390667E0,-1.868183296E1,-8.435393860E0,8.144410096E0,2.205670347E1
6.060357667E0,-1.896012534E1,-9.077974793E0,8.853508371E0,2.280966001E1
6.070324667E0,-1.821611861E1,-9.854230678E0,1.025452404E1,2.311034623E1
6.080291667E0,-1.676544311E1,-1.013612027E1,1.182532240E1,2.288360257E1
6.090258667E0,-1.538341042E1,-1.016421848E1,1.270514592E1,2.239154721E1
6.100225667E0,-1.381040299E1,-1.036184618E1,1.334306311E1,2.182045876E1
6.110193667E0,-1.263663292E1,-1.092887173E1,1.392446580E1,2.174891898E1
6.120160667E0,-1.171662149E1,-1.185828549E1,1.440167344E1,2.202966981E1
6.130127667E0,-1.031767865E1,-1.285015219E1,1.460523139E1,2.202030172E1
6.140094667E0,-8.480981677E0,-1.364305919E1,1.458786048E1,2.169944211E1
6.150061667E0,-6.486930866E0,-1.429168965E1,1.416439343E1,2.114149253E1
6.160028667E0,-4.674923759E0,-1.507724203E1,1.284918857E1,2.035386416E1
6.169996667E0,-4.338345746E0,-1.604816751E1,1.166630269E1,2.030929695E1
6.179963667E0,-3.962176822E0,-1.705776413E1,1.037865576E1,2.035639108E1
6.189930667E0,-3.421064376E0,-1.825046749E1,9.047643532E0,2.065534068E1
6.199897667E0,-3.748214922E0,-1.911367206E1,8.463271630E0,2.123696168E1
6.209864667E0,-3.576610252E0,-1.998131583E1,8.035078858E0,2.183134479E1
6.219831667E0,-2.706522928E0,-2.108229742E1,7.235688465E0,2.245314495E1
6.229799667E0,-1.904269738E0,-2.166740724E1,6.751423818E0,2.277464606E1
6.239766667E0,-5.495815533E-1,-2.238828473E1,6.421051456E0,2.329736540E1
6.249733667E0,1.869608613E0,-2.319513032E1,6.478647115E0,2.415537985E1
6.259700667E0,3.575143771E0,-2.319778028E1,7.304076914E0,2.458186735E1
6.269667667E0,3.926999972E0,-2.406898735E1,6.243019527E0,2.517365237E1
6.279634667E0,2.843728428E0,-2.514334072E1,3.332688389E0,2.552217047E1
6.289602667E0,1.763735418E0,-2.580119692E1,1.409115822E0,2.589977089E1
6.299569667E0,1.888789235E0,-2.688857321E1,-1.918983087E-1,2.695551370E1
6.309536583E0,3.840683375E0,-2.862731996E1,-1.200531022E0,2.890874559E1
6.319503583E0,5.689786972E0,-3.067766484E1,-1.026620795E0,3.121773128E1
6.329470583E0,7.720782246E0,-3.277866298E1,-9.828701735E-2,3.367582049E1
6.339437583E0,1.072952495E1,-3.587884269E1,1.105918980E0,3.746514534E1
6.349405583E0,1.314878119E1,-4.004974113E1,2.550967696E0,4.223007989E1
6.359372583E0,1.509402938E1,-4.449158552E1,4.076507137E0,4.715876181E1
6.369339583E0,1.693353068E1,-4.789769155E1,5.047054596E0,5.105297325E1
6.379306583E0,1.785418414E1,-5.058850067E1,4.857299584E0,5.386614568E1
6.389273583E0,1.725569589E1,-5.284240116E1,3.887338893E0,5.572422996E1
6.399240583E0,1.884160345E1,-5.478114608E1,3.111843731E0,5.801433925E1
6.409208583E0,2.258297128E1,-5.543322289E1,2.504667689E0,5.990914916E1
6.419175583E0,2.758975260E1,-5.552888802E1,1.567767301E0,6.202507354E1
6.429142583E0,3.303611355E1,-5.501998847E1,1.120249336E0,6.418597112E1
6.439109583E0,3.815677523E1,-5.342026511E1,9.689352353E-1,6.565518301E1
6.449076583E0,4.104910046E1,-5.012279567E1,1.288938291E-1,6.478688068E1
6.459043583E0,4.143344964E1,-4.567841125E1,-5.657496893E-1,6.167307416E1
6.469011583E0,4.133198875E1,-4.236802181E1,-9.788648307E-1,5.919747243E1
6.478978583E0,4.108364581E1,-3.977183935E1,-4.266891602E-1,5.718257795E1
6.488945583E0,4.038537131E1,-3.722892736E1,2.110593713E0,5.496749816E1
6.498912583E0,3.995959110E1,-3.523197925E1,4.946315841E0,5.350259175E1
6.508879583E0,3.871356114E1,-3.328987803E1,7.131185857E0,5.155394851E1
6.518846583E0,3.631464269E1,-3.105628843E1,8.887591206E0,4.860283533E1
6.528814583E0,3.394007905E1,-2.887737965E1,9.862868185E0,4.564108008E1
6.538781583E0,3.181433082E1,-2.659361860E1,9.866156659E0,4.262291922E1
6.548748583E0,3.005350264E1,-2.469422310E1,1.036784659E1,4.025555761E1
6.558715583E0,2.871239695E1,-2.378198963E1,1.082041407E1,3.882094963E1
6.568682583E0,2.722603707E1,-2.307465195E1,1.213182642E1,3.769453368E1
6.578649583E0,2.603126146E1,-2.222855517E1,1.396981680E1,3.697148928E1
6.588616583E0,2.496269684E1,-2.202894292E1,1.401789261E1,3.612356395E1
6.598584583E0,2.365345847E1,-2.146452757E1,1.312908309E1,3.453382203E1
6.608551583E0,2.118032716E1,-2.036867749E1,1.207461844E1,3.176925702E1
6.618518583E0,1.776855869E1,-1.975871701E1,1.122179619E1,2.884540319E1
6.628485583E0,1.577503939E1,-2.053748895E1,1.183166546E1,2.847154066E1
6.638452583E0,1.562543253E1,-2.054499443E1,1.421482333E1,2.946713661E1
6.648419583E0,1.599807207E1,-2.001489054E1,1.742502190E1,3.098653807E1
6.658387583E0,1.628937919E1,-1.906936770E1,2.121307624E1,3.284781975E1
6.668354583E0,1.721603774E1,-1.640660650E1,2.521343714E1,3.465957450E1
6.678321583E0,1.815343061E1,-1.325256108E1,2.959787122E1,3.716465255E1
6.688288583E0,1.855970801E1,-9.041696913E0,3.265713913E1,3.863552485E1
6.698255583E0,1.797532793E1,-6.617270565E0,3.075604092E1,3.623306138E1
6.708223583E0,1.694336921E1,-3.872085847E0,2.813642516E1,3.307157737E1
6.718190583E0,1.721258437E1,-2.233841032E-1,2.694883461E1,3.197753349E1
6.728157583E0,1.882240704E1,2.043607425E0,2.581568632E1,3.201419994E1
6.738124583E0,1.901173988E1,4.197597126E0,2.583473655E1,3.234964741E1
6.748091583E0,1.822361240E1,5.937727627E0,2.644754112E1,3.266234972E1
6.758058583E0,1.829012915E1,6.977768367E0,2.708455082E1,3.341842260E1
6.768026583E0,1.873007015E1,8.098069158E0,2.695914676E1,3.381109058E1
6.777993583E0,1.885434336E1,9.622449389E0,2.690379234E1,3.423290578E1
6.787960583E0,1.851959144E1,1.097940571E1,2.653450091E1,3.417019689E1
6.797927583E0,1.833264660E1,1.242676583E1,2.587858365E1,3.406187798E1
6.807894583E0,1.900677443E1,1.383541270E1,2.658641951E1,3.548962977E1
6.817861583E0,2.090387314E1,1.423789644E1,2.889199535E1,3.839839844E1
6.827828583E0,2.385719652E1,1.390567402E1,3.176190702E1,4.208743676E1
6.837796583E0,2.641780920E1,1.212611369E1,3.282589445E1,4.384612437E1
6.847763583E0,2.699213207E1,8.956318209E0,3.189494521E1,4.273263811E1
6.857730583E0,2.556380698E1,4.666157613E0,2.975500462E1,3.950495607E1
6.867697583E0,2.274238041E1,-3.940447399E-1,2.716768420E1,3.543238918E1
6.877664583E0,1.956421756E1,-4.831766840E0,2.478054671E1,3.194025790E1
6.887631583E0,1.656229213E1,-8.194996698E0,2.209240392E1,2.880176735E1
6.897599583E0,1.467176803E1,-1.024606546E1,1.918880527E1,2.623838566E1
6.907566583E0,1.464624142E1,-1.073786308E1,1.710497338E1,2.494782968E1
6.917533583E0,1.592165130E1,-1.084214232E1,1.576607327E1,2.489216938E1
6.927500583E0,1.767387589E1,-1.127886033E1,1.425806933E1,2.535490328E1
6.937467583E0,1.894630018E1,-1.198407196E1,1.334443721E1,2.608935177E1
6.947434583E0,1.900194697E1,-1.153516251E1,1.326866314E1,2.588805485E1
6.957402583E0,1.904469830E1,-1.231809533E1,1.298306408E1,2.613419137E1
6.967369583E0,1.897582745E1,-1.388905038E1,1.246923065E1,2.661708964E1
6.977336583E0,1.944609562E1,-1.510095249E1,1.198241135E1,2.738188421E1
6.987303583E0,2.064886203E1,-1.637397202E1,1.190478606E1,2.891723352E1
6.997270583E0,2.294825620E1,-1.848685872E1,1.141287852E1,3.160126903E1
7.007237583E0,2.549245925E1,-2.080113756E1,1.051645124E1,3.454198242E1
7.017205583E0,2.782331846E1,-2.252905528E1,9.701368089E0,3.709193880E1
7.027172583E0,2.958297719E1,-2.439481759E1,8.762321042E0,3.933240312E1
7.037139583E0,3.046349771E1,-2.619865789E1,7.363928429E0,4.084876754E1
7.047106583E0,3.049685958E1,-2.795558949E1,6.369072633E0,4.185855366E1
7.057073583E0,3.072682823E1,-2.964369936E1,6.381147133E0,4.316950224E1
7.067040583E0,3.141431578E1,-3.087337817E1,7.195439740E0,4.462957616E1
7.077008583E0,3.281334633E1,-3.236595715E1,7.785946541E0,4.674282664E1
7.086975583E0,3.424089725E1,-3.442026644E1,7.461392158E0,4.912093402E1
7.096942583E0,3.544789120E1,-3.686985686E1,6.983965831E0,5.162087867E1
7.106909583E0,3.710074938E1,-3.982307967E1,6.341757950E0,5.479563096E1
7.116876583E0,3.910782018E1,-4.271454184E1,5.502802956E0,5.817417403E1
7.126843583E0,3.993700682E1,-4.429980153E1,4.501302384E0,5.981386672E1
7.136811583E0,3.980766173E1,-4.491234180E1,2.872286814E0,6.008342875E1
7.146778583E0,3.925226044E1,-4.555313583E1,1.359119790E0,6.014711415E1
7.156745583E0,3.750732265E1,-4.728269076E1,2.347587283E-1,6.035318724E1
7.166712583E0,3.478575952E1,-4.852760040E1,2.178087831E-2,5.970743287E1
7.176679583E0,3.151813193E1,-4.895559319E1,1.023832258E0,5.823307460E1
7.186646583E0,2.839297058E1,-4.881280419E1,1.532687954E0,5.649070511E1
7.196614583E0,2.558295544E1,-4.741947819E1,1.342349975E0,5.389709105E1
7.206581583E0,2.317731035E1,-4.474921384E1,1.243562436E0,5.041057728E1
7.216548583E0,2.129347780E1,-4.232962197E1,1.252803960E0,4.740019632E1
7.226515583E0,1.969595533E1,-4.089856038E1,7.627709629E-1,4.540049248E1
7.236482583E0,1.765523731E1,-3.906024724E1,-6.061038096E-1,4.286930931E1
7.246449583E0,1.520741391E1,-3.715824622E1,-2.193908057E0,4.020962487E1
7.256417583E0,1.250815439E1,-3.508134328E1,-3.173180439E0,3.737945488E1
7.266384583E0,9.537309836E0,-3.260781904E1,-3.801264663E0,3.418595844E1
7.276351583E0,7.708891933E0,-2.977391451E1,-3.614257258E0,3.096733530E1
7.286318583E0,6.801698179E0,-2.772714579E1,-2.822557415E0,2.868840432E1
7.296285583E0,5.654909500E0,-2.656021462E1,-2.480480681E0,2.726858608E1
7.306252417E0,4.043984047E0,-2.583631763E1,-2.665569615E0,2.628639148E1
7.316220417E0,2.579464102E0,-2.516486315E1,-2.621764029E0,2.543221616E1
7.326187417E0,1.347330633E0,-2.466247506E1,-2.782989891E0,2.485554281E1
7.336154417E0,9.805570149E-1,-2.355053111E1,-2.894822568E0,2.374803161E1
7.346121417E0,8.441981918E-1,-2.240462653E1,-3.205186343E0,2.264846970E1
7.356088417E0,5.462012780E-1,-2.132492646E1,-3.053439403E0,2.154934608E1
7.366055417E0,8.944222659E-2,-2.065009229E1,-2.739753240E0,2.083123998E1
7.376023417E0,-1.238928518E-1,-2.057769440E1,-2.667823132E0,2.075028040E1
7.385990417E0,-9.895678666E-1,-2.076763068E1,-2.635161754E0,2.095752385E1
7.395957417E0,-1.996580024E0,-2.016584928E1,-2.272540390E0,2.039147490E1
7.405924417E0,-1.731023755E0,-1.962874743E1,-2.043204845E0,1.981057433E1
7.415891417E0,-1.049659702E0,-1.928699054E1,-2.190461124E0,1.943933923E1
7.425858417E0,-1.185676171E0,-1.867107876E1,-2.587340886E0,1.888675046E1
7.435826417E0,-1.100438384E0,-1.868523721E1,-3.438352838E0,1.903079936E1
7.445793417E0,-1.628541653E0,-1.879037599E1,-4.339904614E0,1.935368569E1
7.455760417E0,-2.762610590E0,-1.817640315E1,-4.286078070E0,1.887813852E1
7.465727417E0,-3.361491188E0,-1.779130669E1,-3.539542413E0,1.844880965E1
7.475694417E0,-3.806371036E0,-1.707944795E1,-2.218671600E0,1.763855171E1
7.485661417E0,-3.578745655E0,-1.586995139E1,-8.162854846E-1,1.628892567E1
7.495629417E0,-3.128887780E0,-1.485603952E1,5.052665292E-1,1.519036350E1
7.505596417E0,-3.106971247E0,-1.390224404E1,1.228237322E0,1.429804975E1
7.515563417E0,-3.277535697E0,-1.302520730E1,1.540085121E0,1.351925026E1
7.525530417E0,-3.943221318E0,-1.195437980E1,1.951051556E0,1.273824136E1
7.535497417E0,-4.511784103E0,-1.053152068E1,2.688337503E0,1.176844434E1
7.545464417E0,-4.329026454E0,-9.033850535E0,3.280616302E0,1.054103263E1
7.555432417E0,-3.711447922E0,-8.354668955E0,3.031065617E0,9.631339356E0
7.565399417E0,-3.003494825E0,-8.112867876E0,2.079011731E0,8.897297125E0
7.575366417E0,-1.565260015E0,-7.361751511E0,5.949290496E-1,7.549792367E0
7.585333417E0,1.095910154E0,-6.330928906E0,-7.836569980E-1,6.472696360E0
7.595300417E0,3.314187214E0,-5.440987946E0,-1.722753453E0,6.599701977E0
7.605267417E0,4.303112471E0,-5.231499751E0,-2.789109587E0,7.325605700E0
7.615235417E0,5.267269508E0,-4.854147350E0,-3.385298127E0,7.922570162E0
7.625202417E0,5.220261403E0,-4.058254761E0,-2.181104994E0,6.962598639E0
7.635169417E0,3.872360666E0,-4.697579380E0,2.327770704E-1,6.092340628E0
7.645136417E0,2.865884113E0,-5.126541061E0,2.510781245E0,6.387388939E0
7.655103417E0,2.785186105E0,-4.410102192E0,4.431648597E0,6.844397145E0
7.665070417E0,3.719118300E0,-4.211941223E0,4.698662869E0,7.324597092E0
7.675038417E0,4.838225382E0,-3.788426224E0,3.744325354E0,7.195871765E0
7.685005417E0,5.567360895E0,-3.016503711E0,3.351050400E0,7.164100834E0
7.694972417E0,5.818128678E0,-2.712111112E0,3.169014882E0,7.158828349E0
7.704939417E0,5.602861095E0,-2.218448821E0,3.029492716E0,6.744730813E0
7.714906417E0,4.954245250E0,-1.902412663E0,2.898542859E0,6.046922411E0
7.724873417E0,4.165227817E0,-1.910736759E0,2.279289100E0,5.118124318E0
7.734840417E0,3.550479923E0,-1.376809371E0,1.676525366E0,4.160799085E0
7.744808417E0,2.767873669E0,-4.082677996E-1,1.715325150E0,3.281790307E0
7.754775417E0,1.878224193E0,2.921456051E-1,1.801191512E0,2.618657297E0
7.764742417E0,1.650790016E0,6.544665688E-1,1.860741895E0,2.572118692E0
7.774709417E0,1.720722131E0,1.034773568E0,2.042268705E0,2.864001126E0
7.784676417E0,2.116399121E0,1.221891485E0,1.791351087E0,3.030033458E0
7.794644417E0,2.539747182E0,1.553944922E0,5.191590750E-1,3.022347881E0
7.804611417E0,2.128131851E0,2.335925231E0,-1.145331844E0,3.361142201E0
7.814578417E0,6.517847434E-1,2.651125238E0,-2.384762638E0,3.624966375E0
7.824545417E0,-7.313501456E-1,2.269459931E0,-2.514880435E0,3.465536757E0
7.834512417E0,-1.198949058E0,1.985655379E0,-1.127328121E0,2.578987169E0
7.844479417E0,-1.226414891E0,1.656494560E0,2.151310506E-1,2.072281130E0
7.854446417E0,-1.302055643E0,1.566883641E0,3.047358298E-1,2.059936204E0
7.864414417E0,-1.144373193E0,1.769810091E0,-4.324204548E-1,2.151465829E0
7.874381417E0,-3.607348699E-1,1.981385157E0,-7.539671758E-1,2.150461181E0
7.884348417E0,-4.527966857E-2,2.209004399E0,-6.146756816E-1,2.293376741E0
7.894315417E0,-3.649261907E-1,2.354795365E0,-1.776501060E-2,2.382970401E0
7.904282417E0,-5.042951605E-1,2.380603806E0,7.124025357E-1,2.535568075E0
7.914249417E0,-6.744210693E-1,2.700861070E0,8.439645955E-1,2.908912260E0
7.924217417E0,-9.732906801E-1,2.548357499E0,5.095380664E-1,2.775076527E0
7.934184417E0,-1.360489792E0,2.123700539E0,-6.321804911E-2,2.522901698E0
7.944151417E0,-1.515741554E0,1.831483013E0,-6.802396336E-1,2.472757255E0
7.954118417E0,-1.368998953E0,1.604075441E0,-6.089170513E-1,2.194993423E0
7.964085417E0,-7.918270200E-1,1.540165374E0,3.681640863E-2,1.732182108E0
7.974052417E0,-1.668078881E-1,1.550777485E0,9.852228007E-1,1.844830520E0
7.984020417E0,2.399092117E-1,1.756631051E0,1.422414730E0,2.273009622E0
7.993987417E0,7.897416106E-1,1.965207081E0,1.047478398E0,2.362824936E0
8.003954417E0,1.022088618E0,1.970952555E0,3.590357056E-1,2.249049967E0
8.013921417E0,5.000699624E-1,1.920402791E0,-3.845456457E-1,2.021358998E0
8.023888417E0,-2.569988689E-1,1.681379140E0,-8.941989022E-1,1.921633656E0
8.033855417E0,-5.139009663E-1,1.591425574E0,-8.444350040E-1,1.873446033E0
8.043823417E0,-1.854675409E-1,1.521192913E0,-5.763612163E-1,1.637259399E0
8.053790417E0,3.313766214E-1,1.454704224E0,-4.769515336E-1,1.566351688E0
8.063757417E0,9.616506279E-1,1.615123755E0,-5.165564793E-1,1.949417161E0
8.073724417E0,1.423080143E0,1.591679928E0,-5.313411641E-1,2.200210335E0
8.083691417E0,1.571993230E0,1.520608776E0,-7.004498036E-1,2.296528618E0
8.093658417E0,1.327972549E0,1.301410110E0,-7.738854235E-1,2.013970708E0
8.103626417E0,5.468114349E-1,7.990097398E-1,-4.203243198E-1,1.055505492E0
8.113593417E0,-7.911958131E-1,2.734175581E-1,1.414710438E-1,8.489770503E-1
8.123560417E0,-1.440121853E0,2.464776814E-2,2.319869654E-1,1.458895615E0
8.133527417E0,-1.048131532E0,1.163496512E-1,2.250568454E-1,1.078316991E0
8.143494417E0,-3.142445719E-1,5.395442230E-1,3.813305542E-2,6.255491583E-1
8.153461417E0,-2.335009557E-1,7.290062892E-1,-7.121411651E-1,1.045522790E0
8.163429417E0,-4.919525653E-1,7.089117479E-1,-1.814221740E0,2.008973299E0
8.173396417E0,-6.083975261E-1,6.330745304E-1,-2.626618388E0,2.769486426E0
8.183363417E0,-4.650398782E-1,7.024722093E-1,-2.906246566E0,3.025888034E0
8.193330417E0,-7.704373205E-1,5.983941096E-1,-2.629184146E0,2.804328520E0
8.203297417E0,-1.039881988E0,2.674036968E-1,-1.744865869E0,2.048759670E0
8.213264417E0,-1.334038450E0,-1.171208990E-1,-4.723334026E-1,1.420026315E0
8.223232417E0,-1.895923130E0,-5.217084610E-1,1.397975707E-1,1.971356790E0
8.233199417E0,-2.074216722E0,-7.969445032E-1,-9.327478409E-3,2.222067180E0
8.243166417E0,5.438696642E-1,-3.699515802E-1,4.968155484E-1,8.243082387E-1
8.253133417E0,-1.737011889E-1,8.270237499E-1,-5.295484078E-1,9.972772444E-1
8.263100417E0,-1.388442114E0,-3.798643649E-1,-2.089557039E0,2.537383900E0
8.273067417E0,3.567307332E-1,5.993963224E-1,-1.421772705E0,1.583657284E0
8.283035417E0,-7.125884771E-2,9.229929310E-1,-1.259804247E0,1.563361927E0
8.293002417E0,-7.918407610E-1,3.727436256E-1,-1.300059403E0,1.567196239E0
8.302969417E0,-1.773060850E0,1.343766171E-1,-1.975061393E0,2.657568317E0
8.312936417E0,-2.022475588E0,-1.805854082E-1,-8.035655978E-1,2.183743635E0
8.322903417E0,-1.973469489E0,-1.621508914E-1,4.656240150E-2,1.980667259E0
8.332870417E0,-2.071028674E0,-1.206841922E-1,1.739460410E-1,2.081821719E0
8.342838417E0,-1.995072320E0,-4.352930456E-1,-3.732190043E-2,2.042348286E0
8.352805417E0,-1.677386661E0,-4.167714053E-1,2.370202486E-1,1.744563846E0
8.362772417E0,-1.721573485E0,-3.819752097E-1,4.843120086E-1,1.828736845E0
8.372739417E0,-2.100692622E0,-4.131899858E-1,2.123612246E-1,2.151448988E0
8.382706417E0,-2.098921793E0,-2.487516636E-1,-1.404549439E-1,2.118272333E0
8.392673417E0,-1.607058105E0,-3.518094242E-2,-2.985658479E-1,1.634935784E0
8.402640417E0,-9.188060322E-1,1.522293359E-1,-2.151506388E-1,9.558598710E-1
8.412608417E0,-1.523869915E-1,4.219520384E-1,-3.807078257E-2,4.502384950E-1
8.422575417E0,2.925442390E-2,4.655781144E-1,6.855611846E-2,4.715068857E-1
8.432542417E0,-4.242094291E-1,3.836217856E-1,-1.883651286E-2,5.722535525E-1
8.442509417E0,-7.000869108E-1,2.003840804E-1,2.918725401E-2,7.287848504E-1
8.452476417E0,-8.300643021E-1,-4.693443060E-2,5.257991731E-2,8.330511593E-1
8.462443417E0,-1.062874702E0,-3.172307450E-1,5.637826860E-2,1.110637874E0
8.472411417E0,-7.917806078E-1,-4.752342063E-1,1.333268957E-1,9.330274073E-1
8.482378417E0,-6.548618406E-2,-2.675112855E-1,5.410931504E-1,6.071511555E-1
8.492345417E0,2.277595747E-1,-1.708264053E-1,6.786231709E-1,7.359249232E-1
8.502312417E0,3.087852459E-1,-6.086834550E-2,5.582538512E-1,6.408593028E-1
8.512279417E0,1.276236677E-1,-2.392388284E-2,2.439861828E-1,2.763863422E-1
8.522246417E0,-3.315399049E-1,-2.306714880E-1,-1.249963675E-1,4.227908890E-1
8.532214417E0,-6.055925437E-1,-4.357052743E-1,6.764906913E-2,7.491046734E-1
8.542181417E0,-1.757430366E-1,-3.117887414E-1,4.423968279E-1,5.690455057E-1
8.552148417E0,1.749412371E-1,-2.047151130E-1,5.255876501E-1,5.905549017E-1
8.562115417E0,-2.197968364E-2,-1.789867795E-1,4.047945535E-1,4.431455791E-1
8.572082417E0,-2.292400897E-2,-3.316762912E-1,1.853871417E-1,3.806613517E-1
8.582049417E0,1.969084954E-1,-3.255349606E-1,1.769811845E-1,4.196049402E-1
8.592017417E0,2.794380706E-1,-2.455795491E-1,3.107605085E-1,4.847339929E-1
8.601984417E0,-4.860571101E-2,-5.100812727E-1,-1.190813242E-1,5.260473189E-1
8.611951417E0,-4.749459386E-2,-4.668282491E-1,3.927106977E-2,4.708785061E-1
8.621918417E0,5.258899511E-1,-2.572751498E-1,6.038258806E-1,8.410448487E-1
8.631885417E0,8.678966644E-1,-1.057550812E-1,7.266457683E-1,1.136856556E0
8.641853417E0,7.063531525E-1,-1.506739765E-1,5.758019301E-1,9.236802943E-1
8.651820417E0,7.133961969E-1,-1.055779105E-1,5.913626866E-1,9.326256784E-1
8.661787417E0,7.460771623E-1,-3.854952335E-2,4.912606935E-1,8.941220648E-1
8.671754417E0,5.318688022E-1,-2.192179620E-2,2.527170990E-1,5.892630313E-1
8.681721417E0,5.114328566E-1,2.504303992E-2,1.649213022E-1,5.379495856E-1
8.691688417E0,3.571328755E-1,3.149310350E-2,3.462010673E-1,4.983882877E-1
8.701655417E0,-2.668528891E-1,-7.859651864E-2,3.805356252E-1,4.713759001E-1
8.711623417E0,-4.543103106E-1,-6.029356420E-2,1.977811924E-1,4.991498495E-1
8.721590417E0,-5.670783229E-2,1.520106500E-1,8.958489865E-2,1.853334024E-1
8.731557417E0,1.812199773E-1,2.814200574E-1,2.791843745E-1,4.358690673E-1
8.741524417E0,1.179096884E-1,2.061903656E-1,4.337230682E-2,2.414504472E-1
8.751491417E0,3.536263733E-1,3.334415656E-1,-1.127620921E-1,4.989490746E-1
8.761458417E0,7.841247021E-1,4.922472650E-1,-3.437256485E-2,9.264666166E-1
8.771426417E0,5.808796522E-1,3.683728319E-1,6.186237216E-2,6.906132541E-1
8.781393417E0,1.443833958E-1,4.462945819E-2,-1.672634044E-1,2.254227140E-1
8.791360417E0,2.667592605E-1,1.094657242E-2,-2.486151311E-1,3.648147666E-1
8.801327417E0,1.559536468E-1,-3.444068491E-2,-7.823311418E-2,1.778429669E-1
8.811294417E0,1.813791677E-2,-1.847854632E-1,-1.044415042E-1,2.130321085E-1
8.821261417E0,-4.016131566E-1,-2.972508091E-1,-4.031798449E-1,6.420320540E-1
8.831229417E0,-4.809335605E-1,-2.770235360E-1,-2.077963033E-1,5.926368473E-1
8.841196417E0,2.276247963E-3,-4.323723614E-2,1.558338520E-1,1.617369139E-1
8.851163417E0,4.802557951E-1,1.094785881E-1,4.463828748E-1,6.647472158E-1
8.861130417E0,7.123127078E-1,1.046061033E-1,5.906912801E-1,9.312615202E-1
8.871097417E0,6.229756580E-1,1.086061835E-1,6.509608707E-1,9.075483617E-1
8.881064417E0,4.890105388E-1,1.233540308E-1,4.854194713E-1,6.999854192E-1
8.891032417E0,4.467744921E-1,1.905291831E-1,6.094582111E-2,4.895132374E-1
8.900999417E0,3.292765939E-1,1.715584767E-1,-9.775550544E-2,3.839420856E-1
8.910966417E0,-1.614211589E-2,-2.324151278E-2,-2.516407728E-2,3.786775154E-2
8.920933417E0,-3.924003567E-1,-1.995110911E-1,-2.903347224E-2,4.411639807E-1
8.930900417E0,-6.743567500E-1,-3.302121484E-1,-1.861314923E-1,7.735903448E-1
8.940867417E0,-5.485237920E-1,-3.137727016E-1,-3.065753639E-1,7.023675053E-1
8.950835417E0,1.229257223E-1,-6.289499044E-2,-1.856754094E-1,2.313911638E-1
8.960802417E0,2.926206914E-1,1.556061029E-2,3.692282796E-1,4.713793844E-1
8.970769417E0,1.247687647E-1,-1.065883094E-1,1.899818838E-1,2.510406909E-1
8.980736417E0,2.628077853E-1,-3.938918352E-2,-1.286697346E-1,2.952547042E-1
8.990703417E0,2.020995804E-1,-1.261548471E-1,4.377254874E-2,2.422298947E-1
9.000670417E0,9.661471367E-2,-1.700335228E-1,-9.771866798E-3,1.958093235E-1
9.010638417E0,-8.205521978E-2,-2.756827694E-1,-1.180901627E0,1.215426962E0
9.020605417E0,-2.098127156E-2,-2.137508154E-2,-9.045706934E-1,9.050664325E-1
9.030572417E0,-1.356703866E-1,-2.463525510E-1,6.765447780E-1,7.326724165E-1
9.040539417E0,-4.208394594E-2,-3.111414546E-1,3.634199479E-1,4.802646373E-1
9.050506417E0,9.040029287E-2,-1.129535884E-1,7.749618959E-1,7.883505986E-1
9.060473417E0,1.738768977E-1,-3.501733732E-1,7.688287514E-1,8.625266465E-1
9.070441417E0,3.097732061E-1,-1.878125668E-1,1.243847780E0,1.295527036E0
9.080408417E0,4.256494521E-1,-2.508660167E-1,1.418740632E0,1.502310286E0
9.090375417E0,2.654383745E-1,-3.732698750E-1,1.288576349E0,1.367558751E0